"success","trial_type","trial_index","time_elapsed","internal_node_id","rt","stimulus","key_press","test_part","corr_resp","probe","target","foil1","foil2","condition","question","roomNum","sameRoom","context"
"true","fullscreen","0","4681","0.0-0.0","","","","","","","","","","","","","",""
"","html-keyboard-response","1","52977","0.0-1.0","48292","<div align=""center"" style='display: flex; flex-direction: column; margin: auto; flex: 1 1 100%; width: 90%; height: 90%;'><div style=""font-family: 'Open Sans', 'Arial', sans-serif; font-size: 150%; line-height: 1.5em;""><p style=""width: 90%; text-align: justify""><br>After you have watched the video, you will now complete a memory task.<br><br>On each trial, you need to answer three separate questions. The <strong>first question</strong> is <i>'What came after this object?'</i> for the object presented at the top of the screen. This is relative to the sequence of objects you saw in the video. You choose the correct image from the three alternatives  presented to you by pressing <strong>1, 2 or 3</strong> from top of the keyboard.<br>For the <strong>second question</strong>, you need to decide in which type of room the object was in and for the <strong>third question</strong> on which table the object on was irrespective of the room type. Please press the respective numbers which are used to label the room type/postions. <br><br>Press <strong>space</strong> to begin.","32","","","","","","","","","","",""
"","html-keyboard-response","2","55480","0.0-2.0-0.0","null","<div style=""font-size:60px;"">+</div>","null","fixation","","","","","","","","","",""
"","html-keyboard-response","3","65742","0.0-2.0-1.0","10258","<img src= images/stimuli/26.png width = '400' height = '251.57232704402514'><p>What came after this object?</p><img src= images/stimuli/24.png width = '400' height = '251.57232704402514' hspace='5'><img src= images/stimuli/79.png width = '400' height = '251.57232704402514' hspace='5'><img src= images/stimuli/87.png width = '400' height = '251.57232704402514' hspace='5'><p>Press 1, 2 or 3.</p>","50","temporalOrder","3","26","images/stimuli/87.png","images/stimuli/79.png","images/stimuli/24.png","6","What came after this object?","22","0","across"
"","html-keyboard-response","4","66244","0.0-2.0-2.0","null","","null","blank","","","","","","","","","",""
"","html-keyboard-response","5","76376","0.0-2.0-3.0","10127","<img src= images/stimuli/26.png width = '400' height = '251.57232704402514'><p>In which type of room was the object?</p><img src= images/stimuli/nw_room.png width = '400' height = '400' hspace='5'><img src= images/stimuli/ww_room.png width = '400' height = '400' hspace='5'><p>Press 1 or 2.</p>","50","roomType","1","","","","","6","","22","",""
"","html-keyboard-response","6","76877","0.0-2.0-4.0","null","","null","blank","","","","","","","","","",""
"","html-keyboard-response","7","86847","0.0-2.0-5.0","9965","<img src= images/stimuli/26.png width = '400' height = '251.57232704402514'><p>At which location in the room was the object?</p><img src= images/stimuli/nw_table.png width = '400' height = '400' hspace='5'><img src= images/stimuli/ww_table.png width = '400' height = '400' hspace='5'><p>Press 1 or 2.</p>","49","tableNum","3","","","","","6","","","",""
"","html-keyboard-response","8","87348","0.0-2.0-0.1","null","<div style=""font-size:60px;"">+</div>","null","fixation","","","","","","","","","",""
"","html-keyboard-response","9","94518","0.0-2.0-1.1","7165","<img src= images/stimuli/16.png width = '400' height = '251.57232704402514'><p>What came after this object?</p><img src= images/stimuli/75.png width = '400' height = '251.57232704402514' hspace='5'><img src= images/stimuli/67.png width = '400' height = '251.57232704402514' hspace='5'><img src= images/stimuli/23.png width = '400' height = '251.57232704402514' hspace='5'><p>Press 1, 2 or 3.</p>","51","temporalOrder","3","16","images/stimuli/23.png","images/stimuli/67.png","images/stimuli/75.png","6","What came after this object?","36","1","within-no-walls"
"","html-keyboard-response","10","95020","0.0-2.0-2.1","null","","null","blank","","","","","","","","","",""
"","html-keyboard-response","11","102006","0.0-2.0-3.1","6984","<img src= images/stimuli/16.png width = '400' height = '251.57232704402514'><p>In which type of room was the object?</p><img src= images/stimuli/nw_room.png width = '400' height = '400' hspace='5'><img src= images/stimuli/ww_room.png width = '400' height = '400' hspace='5'><p>Press 1 or 2.</p>","49","roomType","1","","","","","6","","36","",""
"","html-keyboard-response","12","102507","0.0-2.0-4.1","null","","null","blank","","","","","","","","","",""
"","html-keyboard-response","13","106143","0.0-2.0-5.1","3633","<img src= images/stimuli/16.png width = '400' height = '251.57232704402514'><p>At which location in the room was the object?</p><img src= images/stimuli/nw_table.png width = '400' height = '400' hspace='5'><img src= images/stimuli/ww_table.png width = '400' height = '400' hspace='5'><p>Press 1 or 2.</p>","50","tableNum","2","","","","","6","","","",""
"","html-keyboard-response","14","106644","0.0-2.0-0.2","null","<div style=""font-size:60px;"">+</div>","null","fixation","","","","","","","","","",""
"","html-keyboard-response","15","115238","0.0-2.0-1.2","8584","<img src= images/stimuli/27.png width = '400' height = '251.57232704402514'><p>What came after this object?</p><img src= images/stimuli/77.png width = '400' height = '251.57232704402514' hspace='5'><img src= images/stimuli/12.png width = '400' height = '251.57232704402514' hspace='5'><img src= images/stimuli/61.png width = '400' height = '251.57232704402514' hspace='5'><p>Press 1, 2 or 3.</p>","50","temporalOrder","2","27","images/stimuli/12.png","images/stimuli/77.png","images/stimuli/61.png","6","What came after this object?","8","0","across"
"","html-keyboard-response","16","115739","0.0-2.0-2.2","null","","null","blank","","","","","","","","","",""
"","html-keyboard-response","17","121678","0.0-2.0-3.2","5938","<img src= images/stimuli/27.png width = '400' height = '251.57232704402514'><p>In which type of room was the object?</p><img src= images/stimuli/nw_room.png width = '400' height = '400' hspace='5'><img src= images/stimuli/ww_room.png width = '400' height = '400' hspace='5'><p>Press 1 or 2.</p>","49","roomType","1","","","","","6","","8","",""
"","html-keyboard-response","18","122179","0.0-2.0-4.2","null","","null","blank","","","","","","","","","",""
"","html-keyboard-response","19","129990","0.0-2.0-5.2","7808","<img src= images/stimuli/27.png width = '400' height = '251.57232704402514'><p>At which location in the room was the object?</p><img src= images/stimuli/nw_table.png width = '400' height = '400' hspace='5'><img src= images/stimuli/ww_table.png width = '400' height = '400' hspace='5'><p>Press 1 or 2.</p>","50","tableNum","3","","","","","6","","","",""
"","html-keyboard-response","20","130491","0.0-2.0-0.3","null","<div style=""font-size:60px;"">+</div>","null","fixation","","","","","","","","","",""
"","html-keyboard-response","21","136767","0.0-2.0-1.3","6266","<img src= images/stimuli/15.png width = '400' height = '251.57232704402514'><p>What came after this object?</p><img src= images/stimuli/5.png width = '400' height = '251.57232704402514' hspace='5'><img src= images/stimuli/76.png width = '400' height = '251.57232704402514' hspace='5'><img src= images/stimuli/80.png width = '400' height = '251.57232704402514' hspace='5'><p>Press 1, 2 or 3.</p>","51","temporalOrder","2","15","images/stimuli/76.png","images/stimuli/5.png","images/stimuli/80.png","6","What came after this object?","19","0","across"
"","html-keyboard-response","22","137268","0.0-2.0-2.3","null","","null","blank","","","","","","","","","",""
"","html-keyboard-response","23","145822","0.0-2.0-3.3","8552","<img src= images/stimuli/15.png width = '400' height = '251.57232704402514'><p>In which type of room was the object?</p><img src= images/stimuli/nw_room.png width = '400' height = '400' hspace='5'><img src= images/stimuli/ww_room.png width = '400' height = '400' hspace='5'><p>Press 1 or 2.</p>","50","roomType","2","","","","","6","","19","",""
"","html-keyboard-response","24","146323","0.0-2.0-4.3","null","","null","blank","","","","","","","","","",""
"","html-keyboard-response","25","153942","0.0-2.0-5.3","7618","<img src= images/stimuli/15.png width = '400' height = '251.57232704402514'><p>At which location in the room was the object?</p><img src= images/stimuli/nw_table.png width = '400' height = '400' hspace='5'><img src= images/stimuli/ww_table.png width = '400' height = '400' hspace='5'><p>Press 1 or 2.</p>","49","tableNum","3","","","","","6","","","",""
"","html-keyboard-response","26","154444","0.0-2.0-0.4","null","<div style=""font-size:60px;"">+</div>","null","fixation","","","","","","","","","",""
"","html-keyboard-response","27","161399","0.0-2.0-1.4","6950","<img src= images/stimuli/48.png width = '400' height = '251.57232704402514'><p>What came after this object?</p><img src= images/stimuli/60.png width = '400' height = '251.57232704402514' hspace='5'><img src= images/stimuli/20.png width = '400' height = '251.57232704402514' hspace='5'><img src= images/stimuli/1.png width = '400' height = '251.57232704402514' hspace='5'><p>Press 1, 2 or 3.</p>","50","temporalOrder","2","48","images/stimuli/20.png","images/stimuli/1.png","images/stimuli/60.png","6","What came after this object?","29","1","within-walls"
"","html-keyboard-response","28","161901","0.0-2.0-2.4","null","","null","blank","","","","","","","","","",""
"","html-keyboard-response","29","169798","0.0-2.0-3.4","7896","<img src= images/stimuli/48.png width = '400' height = '251.57232704402514'><p>In which type of room was the object?</p><img src= images/stimuli/nw_room.png width = '400' height = '400' hspace='5'><img src= images/stimuli/ww_room.png width = '400' height = '400' hspace='5'><p>Press 1 or 2.</p>","50","roomType","2","","","","","6","","29","",""
"","html-keyboard-response","30","170299","0.0-2.0-4.4","null","","null","blank","","","","","","","","","",""
"","html-keyboard-response","31","182007","0.0-2.0-5.4","11706","<img src= images/stimuli/48.png width = '400' height = '251.57232704402514'><p>At which location in the room was the object?</p><img src= images/stimuli/nw_table.png width = '400' height = '400' hspace='5'><img src= images/stimuli/ww_table.png width = '400' height = '400' hspace='5'><p>Press 1 or 2.</p>","50","tableNum","2","","","","","6","","","",""
"","html-keyboard-response","32","182507","0.0-2.0-0.5","null","<div style=""font-size:60px;"">+</div>","null","fixation","","","","","","","","","",""
"","html-keyboard-response","33","186974","0.0-2.0-1.5","4463","<img src= images/stimuli/87.png width = '400' height = '251.57232704402514'><p>What came after this object?</p><img src= images/stimuli/85.png width = '400' height = '251.57232704402514' hspace='5'><img src= images/stimuli/56.png width = '400' height = '251.57232704402514' hspace='5'><img src= images/stimuli/29.png width = '400' height = '251.57232704402514' hspace='5'><p>Press 1, 2 or 3.</p>","51","temporalOrder","1","87","images/stimuli/85.png","images/stimuli/29.png","images/stimuli/56.png","6","What came after this object?","23","1","within-walls"
"","html-keyboard-response","34","187475","0.0-2.0-2.5","null","","null","blank","","","","","","","","","",""
"","html-keyboard-response","35","201478","0.0-2.0-3.5","14002","<img src= images/stimuli/87.png width = '400' height = '251.57232704402514'><p>In which type of room was the object?</p><img src= images/stimuli/nw_room.png width = '400' height = '400' hspace='5'><img src= images/stimuli/ww_room.png width = '400' height = '400' hspace='5'><p>Press 1 or 2.</p>","50","roomType","2","","","","","6","","23","",""
"","html-keyboard-response","36","201979","0.0-2.0-4.5","null","","null","blank","","","","","","","","","",""
"","html-keyboard-response","37","213375","0.0-2.0-5.5","11395","<img src= images/stimuli/87.png width = '400' height = '251.57232704402514'><p>At which location in the room was the object?</p><img src= images/stimuli/nw_table.png width = '400' height = '400' hspace='5'><img src= images/stimuli/ww_table.png width = '400' height = '400' hspace='5'><p>Press 1 or 2.</p>","49","tableNum","2","","","","","6","","","",""
"","html-keyboard-response","38","213876","0.0-2.0-0.6","null","<div style=""font-size:60px;"">+</div>","null","fixation","","","","","","","","","",""
"","html-keyboard-response","39","220854","0.0-2.0-1.6","6975","<img src= images/stimuli/81.png width = '400' height = '251.57232704402514'><p>What came after this object?</p><img src= images/stimuli/71.png width = '400' height = '251.57232704402514' hspace='5'><img src= images/stimuli/12.png width = '400' height = '251.57232704402514' hspace='5'><img src= images/stimuli/77.png width = '400' height = '251.57232704402514' hspace='5'><p>Press 1, 2 or 3.</p>","50","temporalOrder","3","81","images/stimuli/77.png","images/stimuli/71.png","images/stimuli/12.png","6","What came after this object?","6","0","across"
"","html-keyboard-response","40","221355","0.0-2.0-2.6","null","","null","blank","","","","","","","","","",""
"","html-keyboard-response","41","237958","0.0-2.0-3.6","16600","<img src= images/stimuli/81.png width = '400' height = '251.57232704402514'><p>In which type of room was the object?</p><img src= images/stimuli/nw_room.png width = '400' height = '400' hspace='5'><img src= images/stimuli/ww_room.png width = '400' height = '400' hspace='5'><p>Press 1 or 2.</p>","50","roomType","1","","","","","6","","6","",""
"","html-keyboard-response","42","238459","0.0-2.0-4.6","null","","null","blank","","","","","","","","","",""
"","html-keyboard-response","43","260014","0.0-2.0-5.6","21553","<img src= images/stimuli/81.png width = '400' height = '251.57232704402514'><p>At which location in the room was the object?</p><img src= images/stimuli/nw_table.png width = '400' height = '400' hspace='5'><img src= images/stimuli/ww_table.png width = '400' height = '400' hspace='5'><p>Press 1 or 2.</p>","49","tableNum","3","","","","","6","","","",""
"","html-keyboard-response","44","260515","0.0-2.0-0.7","null","<div style=""font-size:60px;"">+</div>","null","fixation","","","","","","","","","",""
"","html-keyboard-response","45","274894","0.0-2.0-1.7","14376","<img src= images/stimuli/40.png width = '400' height = '251.57232704402514'><p>What came after this object?</p><img src= images/stimuli/62.png width = '400' height = '251.57232704402514' hspace='5'><img src= images/stimuli/48.png width = '400' height = '251.57232704402514' hspace='5'><img src= images/stimuli/18.png width = '400' height = '251.57232704402514' hspace='5'><p>Press 1, 2 or 3.</p>","49","temporalOrder","3","40","images/stimuli/18.png","images/stimuli/48.png","images/stimuli/62.png","6","What came after this object?","30","0","across"
"","html-keyboard-response","46","275395","0.0-2.0-2.7","null","","null","blank","","","","","","","","","",""
"","html-keyboard-response","47","280406","0.0-2.0-3.7","5010","<img src= images/stimuli/40.png width = '400' height = '251.57232704402514'><p>In which type of room was the object?</p><img src= images/stimuli/nw_room.png width = '400' height = '400' hspace='5'><img src= images/stimuli/ww_room.png width = '400' height = '400' hspace='5'><p>Press 1 or 2.</p>","49","roomType","1","","","","","6","","30","",""
"","html-keyboard-response","48","280907","0.0-2.0-4.7","null","","null","blank","","","","","","","","","",""
"","html-keyboard-response","49","301630","0.0-2.0-5.7","20722","<img src= images/stimuli/40.png width = '400' height = '251.57232704402514'><p>At which location in the room was the object?</p><img src= images/stimuli/nw_table.png width = '400' height = '400' hspace='5'><img src= images/stimuli/ww_table.png width = '400' height = '400' hspace='5'><p>Press 1 or 2.</p>","49","tableNum","3","","","","","6","","","",""
"","html-keyboard-response","50","302132","0.0-2.0-0.8","null","<div style=""font-size:60px;"">+</div>","null","fixation","","","","","","","","","",""
"","html-keyboard-response","51","312023","0.0-2.0-1.8","9885","<img src= images/stimuli/34.png width = '400' height = '251.57232704402514'><p>What came after this object?</p><img src= images/stimuli/21.png width = '400' height = '251.57232704402514' hspace='5'><img src= images/stimuli/16.png width = '400' height = '251.57232704402514' hspace='5'><img src= images/stimuli/66.png width = '400' height = '251.57232704402514' hspace='5'><p>Press 1, 2 or 3.</p>","49","temporalOrder","2","34","images/stimuli/16.png","images/stimuli/66.png","images/stimuli/21.png","6","What came after this object?","35","0","across"
"","html-keyboard-response","52","312525","0.0-2.0-2.8","null","","null","blank","","","","","","","","","",""
"","html-keyboard-response","53","321558","0.0-2.0-3.8","9032","<img src= images/stimuli/34.png width = '400' height = '251.57232704402514'><p>In which type of room was the object?</p><img src= images/stimuli/nw_room.png width = '400' height = '400' hspace='5'><img src= images/stimuli/ww_room.png width = '400' height = '400' hspace='5'><p>Press 1 or 2.</p>","49","roomType","2","","","","","6","","35","",""
"","html-keyboard-response","54","322058","0.0-2.0-4.8","null","","null","blank","","","","","","","","","",""
"","html-keyboard-response","55","325326","0.0-2.0-5.8","3265","<img src= images/stimuli/34.png width = '400' height = '251.57232704402514'><p>At which location in the room was the object?</p><img src= images/stimuli/nw_table.png width = '400' height = '400' hspace='5'><img src= images/stimuli/ww_table.png width = '400' height = '400' hspace='5'><p>Press 1 or 2.</p>","49","tableNum","3","","","","","6","","","",""
"","html-keyboard-response","56","325827","0.0-2.0-0.9","null","<div style=""font-size:60px;"">+</div>","null","fixation","","","","","","","","","",""
"","html-keyboard-response","57","331095","0.0-2.0-1.9","5263","<img src= images/stimuli/64.png width = '400' height = '251.57232704402514'><p>What came after this object?</p><img src= images/stimuli/53.png width = '400' height = '251.57232704402514' hspace='5'><img src= images/stimuli/86.png width = '400' height = '251.57232704402514' hspace='5'><img src= images/stimuli/32.png width = '400' height = '251.57232704402514' hspace='5'><p>Press 1, 2 or 3.</p>","49","temporalOrder","1","64","images/stimuli/53.png","images/stimuli/32.png","images/stimuli/86.png","6","What came after this object?","13","0","across"
"","html-keyboard-response","58","331596","0.0-2.0-2.9","null","","null","blank","","","","","","","","","",""
"","html-keyboard-response","59","334982","0.0-2.0-3.9","3385","<img src= images/stimuli/64.png width = '400' height = '251.57232704402514'><p>In which type of room was the object?</p><img src= images/stimuli/nw_room.png width = '400' height = '400' hspace='5'><img src= images/stimuli/ww_room.png width = '400' height = '400' hspace='5'><p>Press 1 or 2.</p>","50","roomType","2","","","","","6","","13","",""
"","html-keyboard-response","60","335483","0.0-2.0-4.9","null","","null","blank","","","","","","","","","",""
"","html-keyboard-response","61","341662","0.0-2.0-5.9","6179","<img src= images/stimuli/64.png width = '400' height = '251.57232704402514'><p>At which location in the room was the object?</p><img src= images/stimuli/nw_table.png width = '400' height = '400' hspace='5'><img src= images/stimuli/ww_table.png width = '400' height = '400' hspace='5'><p>Press 1 or 2.</p>","49","tableNum","3","","","","","6","","","",""
"","html-keyboard-response","62","342163","0.0-2.0-0.10","null","<div style=""font-size:60px;"">+</div>","null","fixation","","","","","","","","","",""
"","html-keyboard-response","63","348134","0.0-2.0-1.10","5968","<img src= images/stimuli/46.png width = '400' height = '251.57232704402514'><p>What came after this object?</p><img src= images/stimuli/53.png width = '400' height = '251.57232704402514' hspace='5'><img src= images/stimuli/0.png width = '400' height = '251.57232704402514' hspace='5'><img src= images/stimuli/32.png width = '400' height = '251.57232704402514' hspace='5'><p>Press 1, 2 or 3.</p>","50","temporalOrder","3","46","images/stimuli/32.png","images/stimuli/0.png","images/stimuli/53.png","6","What came after this object?","11","0","across"
"","html-keyboard-response","64","348635","0.0-2.0-2.10","null","","null","blank","","","","","","","","","",""
"","html-keyboard-response","65","351838","0.0-2.0-3.10","3202","<img src= images/stimuli/46.png width = '400' height = '251.57232704402514'><p>In which type of room was the object?</p><img src= images/stimuli/nw_room.png width = '400' height = '400' hspace='5'><img src= images/stimuli/ww_room.png width = '400' height = '400' hspace='5'><p>Press 1 or 2.</p>","50","roomType","2","","","","","6","","11","",""
"","html-keyboard-response","66","352339","0.0-2.0-4.10","null","","null","blank","","","","","","","","","",""
"","html-keyboard-response","67","358079","0.0-2.0-5.10","5738","<img src= images/stimuli/46.png width = '400' height = '251.57232704402514'><p>At which location in the room was the object?</p><img src= images/stimuli/nw_table.png width = '400' height = '400' hspace='5'><img src= images/stimuli/ww_table.png width = '400' height = '400' hspace='5'><p>Press 1 or 2.</p>","49","tableNum","3","","","","","6","","","",""
"","html-keyboard-response","68","358579","0.0-2.0-0.11","null","<div style=""font-size:60px;"">+</div>","null","fixation","","","","","","","","","",""
"","html-keyboard-response","69","371510","0.0-2.0-1.11","12926","<img src= images/stimuli/28.png width = '400' height = '251.57232704402514'><p>What came after this object?</p><img src= images/stimuli/33.png width = '400' height = '251.57232704402514' hspace='5'><img src= images/stimuli/49.png width = '400' height = '251.57232704402514' hspace='5'><img src= images/stimuli/26.png width = '400' height = '251.57232704402514' hspace='5'><p>Press 1, 2 or 3.</p>","51","temporalOrder","1","28","images/stimuli/33.png","images/stimuli/26.png","images/stimuli/49.png","6","What came after this object?","24","1","within-no-walls"
"","html-keyboard-response","70","372010","0.0-2.0-2.11","null","","null","blank","","","","","","","","","",""
"","html-keyboard-response","71","379430","0.0-2.0-3.11","7417","<img src= images/stimuli/28.png width = '400' height = '251.57232704402514'><p>In which type of room was the object?</p><img src= images/stimuli/nw_room.png width = '400' height = '400' hspace='5'><img src= images/stimuli/ww_room.png width = '400' height = '400' hspace='5'><p>Press 1 or 2.</p>","50","roomType","1","","","","","6","","24","",""
"","html-keyboard-response","72","379931","0.0-2.0-4.11","null","","null","blank","","","","","","","","","",""
"","html-keyboard-response","73","385054","0.0-2.0-5.11","5121","<img src= images/stimuli/28.png width = '400' height = '251.57232704402514'><p>At which location in the room was the object?</p><img src= images/stimuli/nw_table.png width = '400' height = '400' hspace='5'><img src= images/stimuli/ww_table.png width = '400' height = '400' hspace='5'><p>Press 1 or 2.</p>","50","tableNum","2","","","","","6","","","",""
"","html-keyboard-response","74","385556","0.0-2.0-0.12","null","<div style=""font-size:60px;"">+</div>","null","fixation","","","","","","","","","",""
"","html-keyboard-response","75","392022","0.0-2.0-1.12","6465","<img src= images/stimuli/63.png width = '400' height = '251.57232704402514'><p>What came after this object?</p><img src= images/stimuli/36.png width = '400' height = '251.57232704402514' hspace='5'><img src= images/stimuli/29.png width = '400' height = '251.57232704402514' hspace='5'><img src= images/stimuli/15.png width = '400' height = '251.57232704402514' hspace='5'><p>Press 1, 2 or 3.</p>","51","temporalOrder","3","63","images/stimuli/15.png","images/stimuli/36.png","images/stimuli/29.png","6","What came after this object?","19","1","within-walls"
"","html-keyboard-response","76","392523","0.0-2.0-2.12","null","","null","blank","","","","","","","","","",""
"","html-keyboard-response","77","397822","0.0-2.0-3.12","5296","<img src= images/stimuli/63.png width = '400' height = '251.57232704402514'><p>In which type of room was the object?</p><img src= images/stimuli/nw_room.png width = '400' height = '400' hspace='5'><img src= images/stimuli/ww_room.png width = '400' height = '400' hspace='5'><p>Press 1 or 2.</p>","49","roomType","2","","","","","6","","19","",""
"","html-keyboard-response","78","398323","0.0-2.0-4.12","null","","null","blank","","","","","","","","","",""
"","html-keyboard-response","79","401118","0.0-2.0-5.12","2793","<img src= images/stimuli/63.png width = '400' height = '251.57232704402514'><p>At which location in the room was the object?</p><img src= images/stimuli/nw_table.png width = '400' height = '400' hspace='5'><img src= images/stimuli/ww_table.png width = '400' height = '400' hspace='5'><p>Press 1 or 2.</p>","50","tableNum","2","","","","","6","","","",""
"","html-keyboard-response","80","401619","0.0-2.0-0.13","null","<div style=""font-size:60px;"">+</div>","null","fixation","","","","","","","","","",""
"","html-keyboard-response","81","412838","0.0-2.0-1.13","11217","<img src= images/stimuli/82.png width = '400' height = '251.57232704402514'><p>What came after this object?</p><img src= images/stimuli/16.png width = '400' height = '251.57232704402514' hspace='5'><img src= images/stimuli/41.png width = '400' height = '251.57232704402514' hspace='5'><img src= images/stimuli/66.png width = '400' height = '251.57232704402514' hspace='5'><p>Press 1, 2 or 3.</p>","50","temporalOrder","3","82","images/stimuli/66.png","images/stimuli/41.png","images/stimuli/16.png","6","What came after this object?","33","0","across"
"","html-keyboard-response","82","413339","0.0-2.0-2.13","null","","null","blank","","","","","","","","","",""
"","html-keyboard-response","83","422910","0.0-2.0-3.13","9569","<img src= images/stimuli/82.png width = '400' height = '251.57232704402514'><p>In which type of room was the object?</p><img src= images/stimuli/nw_room.png width = '400' height = '400' hspace='5'><img src= images/stimuli/ww_room.png width = '400' height = '400' hspace='5'><p>Press 1 or 2.</p>","49","roomType","2","","","","","6","","33","",""
"","html-keyboard-response","84","423411","0.0-2.0-4.13","null","","null","blank","","","","","","","","","",""
"","html-keyboard-response","85","426966","0.0-2.0-5.13","3553","<img src= images/stimuli/82.png width = '400' height = '251.57232704402514'><p>At which location in the room was the object?</p><img src= images/stimuli/nw_table.png width = '400' height = '400' hspace='5'><img src= images/stimuli/ww_table.png width = '400' height = '400' hspace='5'><p>Press 1 or 2.</p>","49","tableNum","3","","","","","6","","","",""
"","html-keyboard-response","86","427467","0.0-2.0-0.14","null","<div style=""font-size:60px;"">+</div>","null","fixation","","","","","","","","","",""
"","html-keyboard-response","87","431734","0.0-2.0-1.14","4263","<img src= images/stimuli/7.png width = '400' height = '251.57232704402514'><p>What came after this object?</p><img src= images/stimuli/9.png width = '400' height = '251.57232704402514' hspace='5'><img src= images/stimuli/68.png width = '400' height = '251.57232704402514' hspace='5'><img src= images/stimuli/42.png width = '400' height = '251.57232704402514' hspace='5'><p>Press 1, 2 or 3.</p>","51","temporalOrder","1","7","images/stimuli/9.png","images/stimuli/68.png","images/stimuli/42.png","6","What came after this object?","42","1","within-no-walls"
"","html-keyboard-response","88","432235","0.0-2.0-2.14","null","","null","blank","","","","","","","","","",""
"","html-keyboard-response","89","435710","0.0-2.0-3.14","3474","<img src= images/stimuli/7.png width = '400' height = '251.57232704402514'><p>In which type of room was the object?</p><img src= images/stimuli/nw_room.png width = '400' height = '400' hspace='5'><img src= images/stimuli/ww_room.png width = '400' height = '400' hspace='5'><p>Press 1 or 2.</p>","50","roomType","1","","","","","6","","42","",""
"","html-keyboard-response","90","436211","0.0-2.0-4.14","null","","null","blank","","","","","","","","","",""
"","html-keyboard-response","91","443926","0.0-2.0-5.14","7713","<img src= images/stimuli/7.png width = '400' height = '251.57232704402514'><p>At which location in the room was the object?</p><img src= images/stimuli/nw_table.png width = '400' height = '400' hspace='5'><img src= images/stimuli/ww_table.png width = '400' height = '400' hspace='5'><p>Press 1 or 2.</p>","50","tableNum","2","","","","","6","","","",""
"","html-keyboard-response","92","444427","0.0-2.0-0.15","null","<div style=""font-size:60px;"">+</div>","null","fixation","","","","","","","","","",""
"","html-keyboard-response","93","447678","0.0-2.0-1.15","3249","<img src= images/stimuli/24.png width = '400' height = '251.57232704402514'><p>What came after this object?</p><img src= images/stimuli/85.png width = '400' height = '251.57232704402514' hspace='5'><img src= images/stimuli/1.png width = '400' height = '251.57232704402514' hspace='5'><img src= images/stimuli/56.png width = '400' height = '251.57232704402514' hspace='5'><p>Press 1, 2 or 3.</p>","51","temporalOrder","3","24","images/stimuli/56.png","images/stimuli/85.png","images/stimuli/1.png","6","What came after this object?","25","1","within-walls"
"","html-keyboard-response","94","448179","0.0-2.0-2.15","null","","null","blank","","","","","","","","","",""
"","html-keyboard-response","95","451678","0.0-2.0-3.15","3498","<img src= images/stimuli/24.png width = '400' height = '251.57232704402514'><p>In which type of room was the object?</p><img src= images/stimuli/nw_room.png width = '400' height = '400' hspace='5'><img src= images/stimuli/ww_room.png width = '400' height = '400' hspace='5'><p>Press 1 or 2.</p>","49","roomType","2","","","","","6","","25","",""
"","html-keyboard-response","96","452179","0.0-2.0-4.15","null","","null","blank","","","","","","","","","",""
"","html-keyboard-response","97","456726","0.0-2.0-5.15","4545","<img src= images/stimuli/24.png width = '400' height = '251.57232704402514'><p>At which location in the room was the object?</p><img src= images/stimuli/nw_table.png width = '400' height = '400' hspace='5'><img src= images/stimuli/ww_table.png width = '400' height = '400' hspace='5'><p>Press 1 or 2.</p>","50","tableNum","2","","","","","6","","","",""
"","html-keyboard-response","98","457228","0.0-2.0-0.16","null","<div style=""font-size:60px;"">+</div>","null","fixation","","","","","","","","","",""
"","html-keyboard-response","99","466054","0.0-2.0-1.16","8823","<img src= images/stimuli/66.png width = '400' height = '251.57232704402514'><p>What came after this object?</p><img src= images/stimuli/67.png width = '400' height = '251.57232704402514' hspace='5'><img src= images/stimuli/25.png width = '400' height = '251.57232704402514' hspace='5'><img src= images/stimuli/23.png width = '400' height = '251.57232704402514' hspace='5'><p>Press 1, 2 or 3.</p>","51","temporalOrder","1","66","images/stimuli/67.png","images/stimuli/25.png","images/stimuli/23.png","6","What came after this object?","34","1","within-no-walls"
"","html-keyboard-response","100","466555","0.0-2.0-2.16","null","","null","blank","","","","","","","","","",""
"","html-keyboard-response","101","472750","0.0-2.0-3.16","6193","<img src= images/stimuli/66.png width = '400' height = '251.57232704402514'><p>In which type of room was the object?</p><img src= images/stimuli/nw_room.png width = '400' height = '400' hspace='5'><img src= images/stimuli/ww_room.png width = '400' height = '400' hspace='5'><p>Press 1 or 2.</p>","50","roomType","1","","","","","6","","34","",""
"","html-keyboard-response","102","473252","0.0-2.0-4.16","null","","null","blank","","","","","","","","","",""
"","html-keyboard-response","103","478974","0.0-2.0-5.16","5721","<img src= images/stimuli/66.png width = '400' height = '251.57232704402514'><p>At which location in the room was the object?</p><img src= images/stimuli/nw_table.png width = '400' height = '400' hspace='5'><img src= images/stimuli/ww_table.png width = '400' height = '400' hspace='5'><p>Press 1 or 2.</p>","49","tableNum","2","","","","","6","","","",""
"","html-keyboard-response","104","479476","0.0-2.0-0.17","null","<div style=""font-size:60px;"">+</div>","null","fixation","","","","","","","","","",""
"","html-keyboard-response","105","491518","0.0-2.0-1.17","12040","<img src= images/stimuli/67.png width = '400' height = '251.57232704402514'><p>What came after this object?</p><img src= images/stimuli/62.png width = '400' height = '251.57232704402514' hspace='5'><img src= images/stimuli/3.png width = '400' height = '251.57232704402514' hspace='5'><img src= images/stimuli/57.png width = '400' height = '251.57232704402514' hspace='5'><p>Press 1, 2 or 3.</p>","50","temporalOrder","2","67","images/stimuli/3.png","images/stimuli/62.png","images/stimuli/57.png","6","What came after this object?","34","0","across"
"","html-keyboard-response","106","492019","0.0-2.0-2.17","null","","null","blank","","","","","","","","","",""
"","html-keyboard-response","107","495902","0.0-2.0-3.17","3882","<img src= images/stimuli/67.png width = '400' height = '251.57232704402514'><p>In which type of room was the object?</p><img src= images/stimuli/nw_room.png width = '400' height = '400' hspace='5'><img src= images/stimuli/ww_room.png width = '400' height = '400' hspace='5'><p>Press 1 or 2.</p>","49","roomType","1","","","","","6","","34","",""
"","html-keyboard-response","108","496403","0.0-2.0-4.17","null","","null","blank","","","","","","","","","",""
"","html-keyboard-response","109","500406","0.0-2.0-5.17","4002","<img src= images/stimuli/67.png width = '400' height = '251.57232704402514'><p>At which location in the room was the object?</p><img src= images/stimuli/nw_table.png width = '400' height = '400' hspace='5'><img src= images/stimuli/ww_table.png width = '400' height = '400' hspace='5'><p>Press 1 or 2.</p>","49","tableNum","3","","","","","6","","","",""
"","html-keyboard-response","110","500907","0.0-2.0-0.18","null","<div style=""font-size:60px;"">+</div>","null","fixation","","","","","","","","","",""
"","html-keyboard-response","111","505774","0.0-2.0-1.18","4865","<img src= images/stimuli/43.png width = '400' height = '251.57232704402514'><p>What came after this object?</p><img src= images/stimuli/61.png width = '400' height = '251.57232704402514' hspace='5'><img src= images/stimuli/83.png width = '400' height = '251.57232704402514' hspace='5'><img src= images/stimuli/30.png width = '400' height = '251.57232704402514' hspace='5'><p>Press 1, 2 or 3.</p>","51","temporalOrder","2","43","images/stimuli/83.png","images/stimuli/61.png","images/stimuli/30.png","6","What came after this object?","12","0","across"
"","html-keyboard-response","112","506275","0.0-2.0-2.18","null","","null","blank","","","","","","","","","",""
"","html-keyboard-response","113","509703","0.0-2.0-3.18","3425","<img src= images/stimuli/43.png width = '400' height = '251.57232704402514'><p>In which type of room was the object?</p><img src= images/stimuli/nw_room.png width = '400' height = '400' hspace='5'><img src= images/stimuli/ww_room.png width = '400' height = '400' hspace='5'><p>Press 1 or 2.</p>","50","roomType","1","","","","","6","","12","",""
"","html-keyboard-response","114","510202","0.0-2.0-4.18","null","","null","blank","","","","","","","","","",""
"","html-keyboard-response","115","512686","0.0-2.0-5.18","2482","<img src= images/stimuli/43.png width = '400' height = '251.57232704402514'><p>At which location in the room was the object?</p><img src= images/stimuli/nw_table.png width = '400' height = '400' hspace='5'><img src= images/stimuli/ww_table.png width = '400' height = '400' hspace='5'><p>Press 1 or 2.</p>","50","tableNum","3","","","","","6","","","",""
"","html-keyboard-response","116","513187","0.0-2.0-0.19","null","<div style=""font-size:60px;"">+</div>","null","fixation","","","","","","","","","",""
"","html-keyboard-response","117","519422","0.0-2.0-1.19","6233","<img src= images/stimuli/60.png width = '400' height = '251.57232704402514'><p>What came after this object?</p><img src= images/stimuli/10.png width = '400' height = '251.57232704402514' hspace='5'><img src= images/stimuli/41.png width = '400' height = '251.57232704402514' hspace='5'><img src= images/stimuli/66.png width = '400' height = '251.57232704402514' hspace='5'><p>Press 1, 2 or 3.</p>","50","temporalOrder","2","60","images/stimuli/41.png","images/stimuli/10.png","images/stimuli/66.png","6","What came after this object?","31","0","across"
"","html-keyboard-response","118","519923","0.0-2.0-2.19","null","","null","blank","","","","","","","","","",""
"","html-keyboard-response","119","522822","0.0-2.0-3.19","2898","<img src= images/stimuli/60.png width = '400' height = '251.57232704402514'><p>In which type of room was the object?</p><img src= images/stimuli/nw_room.png width = '400' height = '400' hspace='5'><img src= images/stimuli/ww_room.png width = '400' height = '400' hspace='5'><p>Press 1 or 2.</p>","49","roomType","2","","","","","6","","31","",""
"","html-keyboard-response","120","523323","0.0-2.0-4.19","null","","null","blank","","","","","","","","","",""
"","html-keyboard-response","121","526525","0.0-2.0-5.19","3201","<img src= images/stimuli/60.png width = '400' height = '251.57232704402514'><p>At which location in the room was the object?</p><img src= images/stimuli/nw_table.png width = '400' height = '400' hspace='5'><img src= images/stimuli/ww_table.png width = '400' height = '400' hspace='5'><p>Press 1 or 2.</p>","50","tableNum","3","","","","","6","","","",""
"","html-keyboard-response","122","527026","0.0-2.0-0.20","null","<div style=""font-size:60px;"">+</div>","null","fixation","","","","","","","","","",""
"","html-keyboard-response","123","532318","0.0-2.0-1.20","5287","<img src= images/stimuli/14.png width = '400' height = '251.57232704402514'><p>What came after this object?</p><img src= images/stimuli/7.png width = '400' height = '251.57232704402514' hspace='5'><img src= images/stimuli/2.png width = '400' height = '251.57232704402514' hspace='5'><img src= images/stimuli/21.png width = '400' height = '251.57232704402514' hspace='5'><p>Press 1, 2 or 3.</p>","50","temporalOrder","2","14","images/stimuli/2.png","images/stimuli/21.png","images/stimuli/7.png","6","What came after this object?","39","0","across"
"","html-keyboard-response","124","532819","0.0-2.0-2.20","null","","null","blank","","","","","","","","","",""
"","html-keyboard-response","125","536246","0.0-2.0-3.20","3426","<img src= images/stimuli/14.png width = '400' height = '251.57232704402514'><p>In which type of room was the object?</p><img src= images/stimuli/nw_room.png width = '400' height = '400' hspace='5'><img src= images/stimuli/ww_room.png width = '400' height = '400' hspace='5'><p>Press 1 or 2.</p>","49","roomType","2","","","","","6","","39","",""
"","html-keyboard-response","126","536747","0.0-2.0-4.20","null","","null","blank","","","","","","","","","",""
"","html-keyboard-response","127","537790","0.0-2.0-5.20","1042","<img src= images/stimuli/14.png width = '400' height = '251.57232704402514'><p>At which location in the room was the object?</p><img src= images/stimuli/nw_table.png width = '400' height = '400' hspace='5'><img src= images/stimuli/ww_table.png width = '400' height = '400' hspace='5'><p>Press 1 or 2.</p>","50","tableNum","3","","","","","6","","","",""
"","html-keyboard-response","128","538291","0.0-2.0-0.21","null","<div style=""font-size:60px;"">+</div>","null","fixation","","","","","","","","","",""
"","html-keyboard-response","129","545126","0.0-2.0-1.21","6833","<img src= images/stimuli/75.png width = '400' height = '251.57232704402514'><p>What came after this object?</p><img src= images/stimuli/54.png width = '400' height = '251.57232704402514' hspace='5'><img src= images/stimuli/57.png width = '400' height = '251.57232704402514' hspace='5'><img src= images/stimuli/13.png width = '400' height = '251.57232704402514' hspace='5'><p>Press 1, 2 or 3.</p>","51","temporalOrder","1","75","images/stimuli/54.png","images/stimuli/57.png","images/stimuli/13.png","6","What came after this object?","38","0","across"
"","html-keyboard-response","130","545628","0.0-2.0-2.21","null","","null","blank","","","","","","","","","",""
"","html-keyboard-response","131","548542","0.0-2.0-3.21","2912","<img src= images/stimuli/75.png width = '400' height = '251.57232704402514'><p>In which type of room was the object?</p><img src= images/stimuli/nw_room.png width = '400' height = '400' hspace='5'><img src= images/stimuli/ww_room.png width = '400' height = '400' hspace='5'><p>Press 1 or 2.</p>","50","roomType","1","","","","","6","","38","",""
"","html-keyboard-response","132","549042","0.0-2.0-4.21","null","","null","blank","","","","","","","","","",""
"","html-keyboard-response","133","550662","0.0-2.0-5.21","1618","<img src= images/stimuli/75.png width = '400' height = '251.57232704402514'><p>At which location in the room was the object?</p><img src= images/stimuli/nw_table.png width = '400' height = '400' hspace='5'><img src= images/stimuli/ww_table.png width = '400' height = '400' hspace='5'><p>Press 1 or 2.</p>","50","tableNum","3","","","","","6","","","",""
"","html-keyboard-response","134","551163","0.0-2.0-0.22","null","<div style=""font-size:60px;"">+</div>","null","fixation","","","","","","","","","",""
"","html-keyboard-response","135","560686","0.0-2.0-1.22","9521","<img src= images/stimuli/36.png width = '400' height = '251.57232704402514'><p>What came after this object?</p><img src= images/stimuli/86.png width = '400' height = '251.57232704402514' hspace='5'><img src= images/stimuli/5.png width = '400' height = '251.57232704402514' hspace='5'><img src= images/stimuli/76.png width = '400' height = '251.57232704402514' hspace='5'><p>Press 1, 2 or 3.</p>","51","temporalOrder","2","36","images/stimuli/5.png","images/stimuli/86.png","images/stimuli/76.png","6","What came after this object?","17","0","across"
"","html-keyboard-response","136","561188","0.0-2.0-2.22","null","","null","blank","","","","","","","","","",""
"","html-keyboard-response","137","563551","0.0-2.0-3.22","2361","<img src= images/stimuli/36.png width = '400' height = '251.57232704402514'><p>In which type of room was the object?</p><img src= images/stimuli/nw_room.png width = '400' height = '400' hspace='5'><img src= images/stimuli/ww_room.png width = '400' height = '400' hspace='5'><p>Press 1 or 2.</p>","49","roomType","2","","","","","6","","17","",""
"","html-keyboard-response","138","564051","0.0-2.0-4.22","null","","null","blank","","","","","","","","","",""
"","html-keyboard-response","139","566302","0.0-2.0-5.22","2251","<img src= images/stimuli/36.png width = '400' height = '251.57232704402514'><p>At which location in the room was the object?</p><img src= images/stimuli/nw_table.png width = '400' height = '400' hspace='5'><img src= images/stimuli/ww_table.png width = '400' height = '400' hspace='5'><p>Press 1 or 2.</p>","49","tableNum","3","","","","","6","","","",""
"","html-keyboard-response","140","566803","0.0-2.0-0.23","null","<div style=""font-size:60px;"">+</div>","null","fixation","","","","","","","","","",""
"","html-keyboard-response","141","571614","0.0-2.0-1.23","4810","<img src= images/stimuli/61.png width = '400' height = '251.57232704402514'><p>What came after this object?</p><img src= images/stimuli/73.png width = '400' height = '251.57232704402514' hspace='5'><img src= images/stimuli/64.png width = '400' height = '251.57232704402514' hspace='5'><img src= images/stimuli/46.png width = '400' height = '251.57232704402514' hspace='5'><p>Press 1, 2 or 3.</p>","49","temporalOrder","3","61","images/stimuli/46.png","images/stimuli/73.png","images/stimuli/64.png","6","What came after this object?","11","1","within-walls"
"","html-keyboard-response","142","572115","0.0-2.0-2.23","null","","null","blank","","","","","","","","","",""
"","html-keyboard-response","143","575670","0.0-2.0-3.23","3554","<img src= images/stimuli/61.png width = '400' height = '251.57232704402514'><p>In which type of room was the object?</p><img src= images/stimuli/nw_room.png width = '400' height = '400' hspace='5'><img src= images/stimuli/ww_room.png width = '400' height = '400' hspace='5'><p>Press 1 or 2.</p>","49","roomType","2","","","","","6","","11","",""
"","html-keyboard-response","144","576171","0.0-2.0-4.23","null","","null","blank","","","","","","","","","",""
"","html-keyboard-response","145","577950","0.0-2.0-5.23","1777","<img src= images/stimuli/61.png width = '400' height = '251.57232704402514'><p>At which location in the room was the object?</p><img src= images/stimuli/nw_table.png width = '400' height = '400' hspace='5'><img src= images/stimuli/ww_table.png width = '400' height = '400' hspace='5'><p>Press 1 or 2.</p>","50","tableNum","2","","","","","6","","","",""
"","html-keyboard-response","146","578450","0.0-2.0-0.24","null","<div style=""font-size:60px;"">+</div>","null","fixation","","","","","","","","","",""
"","html-keyboard-response","147","584342","0.0-2.0-1.24","5889","<img src= images/stimuli/79.png width = '400' height = '251.57232704402514'><p>What came after this object?</p><img src= images/stimuli/29.png width = '400' height = '251.57232704402514' hspace='5'><img src= images/stimuli/15.png width = '400' height = '251.57232704402514' hspace='5'><img src= images/stimuli/85.png width = '400' height = '251.57232704402514' hspace='5'><p>Press 1, 2 or 3.</p>","51","temporalOrder","1","79","images/stimuli/29.png","images/stimuli/15.png","images/stimuli/85.png","6","What came after this object?","21","1","within-walls"
"","html-keyboard-response","148","584842","0.0-2.0-2.24","null","","null","blank","","","","","","","","","",""
"","html-keyboard-response","149","587446","0.0-2.0-3.24","2601","<img src= images/stimuli/79.png width = '400' height = '251.57232704402514'><p>In which type of room was the object?</p><img src= images/stimuli/nw_room.png width = '400' height = '400' hspace='5'><img src= images/stimuli/ww_room.png width = '400' height = '400' hspace='5'><p>Press 1 or 2.</p>","50","roomType","2","","","","","6","","21","",""
"","html-keyboard-response","150","587947","0.0-2.0-4.24","null","","null","blank","","","","","","","","","",""
"","html-keyboard-response","151","591302","0.0-2.0-5.24","3354","<img src= images/stimuli/79.png width = '400' height = '251.57232704402514'><p>At which location in the room was the object?</p><img src= images/stimuli/nw_table.png width = '400' height = '400' hspace='5'><img src= images/stimuli/ww_table.png width = '400' height = '400' hspace='5'><p>Press 1 or 2.</p>","50","tableNum","2","","","","","6","","","",""
"","html-keyboard-response","152","591803","0.0-2.0-0.25","null","<div style=""font-size:60px;"">+</div>","null","fixation","","","","","","","","","",""
"","html-keyboard-response","153","596462","0.0-2.0-1.25","4657","<img src= images/stimuli/1.png width = '400' height = '251.57232704402514'><p>What came after this object?</p><img src= images/stimuli/10.png width = '400' height = '251.57232704402514' hspace='5'><img src= images/stimuli/50.png width = '400' height = '251.57232704402514' hspace='5'><img src= images/stimuli/59.png width = '400' height = '251.57232704402514' hspace='5'><p>Press 1, 2 or 3.</p>","50","temporalOrder","3","1","images/stimuli/59.png","images/stimuli/50.png","images/stimuli/10.png","6","What came after this object?","27","0","across"
"","html-keyboard-response","154","596963","0.0-2.0-2.25","null","","null","blank","","","","","","","","","",""
"","html-keyboard-response","155","599582","0.0-2.0-3.25","2618","<img src= images/stimuli/1.png width = '400' height = '251.57232704402514'><p>In which type of room was the object?</p><img src= images/stimuli/nw_room.png width = '400' height = '400' hspace='5'><img src= images/stimuli/ww_room.png width = '400' height = '400' hspace='5'><p>Press 1 or 2.</p>","50","roomType","2","","","","","6","","27","",""
"","html-keyboard-response","156","600083","0.0-2.0-4.25","null","","null","blank","","","","","","","","","",""
"","html-keyboard-response","157","602198","0.0-2.0-5.25","2114","<img src= images/stimuli/1.png width = '400' height = '251.57232704402514'><p>At which location in the room was the object?</p><img src= images/stimuli/nw_table.png width = '400' height = '400' hspace='5'><img src= images/stimuli/ww_table.png width = '400' height = '400' hspace='5'><p>Press 1 or 2.</p>","49","tableNum","3","","","","","6","","","",""
"","html-keyboard-response","158","602698","0.0-2.0-0.26","null","<div style=""font-size:60px;"">+</div>","null","fixation","","","","","","","","","",""
"","html-keyboard-response","159","609246","0.0-2.0-1.26","6544","<img src= images/stimuli/37.png width = '400' height = '251.57232704402514'><p>What came after this object?</p><img src= images/stimuli/79.png width = '400' height = '251.57232704402514' hspace='5'><img src= images/stimuli/63.png width = '400' height = '251.57232704402514' hspace='5'><img src= images/stimuli/17.png width = '400' height = '251.57232704402514' hspace='5'><p>Press 1, 2 or 3.</p>","50","temporalOrder","2","37","images/stimuli/63.png","images/stimuli/17.png","images/stimuli/79.png","6","What came after this object?","18","0","across"
"","html-keyboard-response","160","609747","0.0-2.0-2.26","null","","null","blank","","","","","","","","","",""
"","html-keyboard-response","161","613502","0.0-2.0-3.26","3754","<img src= images/stimuli/37.png width = '400' height = '251.57232704402514'><p>In which type of room was the object?</p><img src= images/stimuli/nw_room.png width = '400' height = '400' hspace='5'><img src= images/stimuli/ww_room.png width = '400' height = '400' hspace='5'><p>Press 1 or 2.</p>","49","roomType","1","","","","","6","","18","",""
"","html-keyboard-response","162","614002","0.0-2.0-4.26","null","","null","blank","","","","","","","","","",""
"","html-keyboard-response","163","618991","0.0-2.0-5.26","4986","<img src= images/stimuli/37.png width = '400' height = '251.57232704402514'><p>At which location in the room was the object?</p><img src= images/stimuli/nw_table.png width = '400' height = '400' hspace='5'><img src= images/stimuli/ww_table.png width = '400' height = '400' hspace='5'><p>Press 1 or 2.</p>","50","tableNum","3","","","","","6","","","",""
"","html-keyboard-response","164","619491","0.0-2.0-0.27","null","<div style=""font-size:60px;"">+</div>","null","fixation","","","","","","","","","",""
"","html-keyboard-response","165","626271","0.0-2.0-1.27","6777","<img src= images/stimuli/86.png width = '400' height = '251.57232704402514'><p>What came after this object?</p><img src= images/stimuli/52.png width = '400' height = '251.57232704402514' hspace='5'><img src= images/stimuli/37.png width = '400' height = '251.57232704402514' hspace='5'><img src= images/stimuli/65.png width = '400' height = '251.57232704402514' hspace='5'><p>Press 1, 2 or 3.</p>","51","temporalOrder","3","86","images/stimuli/65.png","images/stimuli/52.png","images/stimuli/37.png","6","What came after this object?","16","1","within-no-walls"
"","html-keyboard-response","166","626771","0.0-2.0-2.27","null","","null","blank","","","","","","","","","",""
"","html-keyboard-response","167","628838","0.0-2.0-3.27","2066","<img src= images/stimuli/86.png width = '400' height = '251.57232704402514'><p>In which type of room was the object?</p><img src= images/stimuli/nw_room.png width = '400' height = '400' hspace='5'><img src= images/stimuli/ww_room.png width = '400' height = '400' hspace='5'><p>Press 1 or 2.</p>","50","roomType","1","","","","","6","","16","",""
"","html-keyboard-response","168","629339","0.0-2.0-4.27","null","","null","blank","","","","","","","","","",""
"","html-keyboard-response","169","631318","0.0-2.0-5.27","1978","<img src= images/stimuli/86.png width = '400' height = '251.57232704402514'><p>At which location in the room was the object?</p><img src= images/stimuli/nw_table.png width = '400' height = '400' hspace='5'><img src= images/stimuli/ww_table.png width = '400' height = '400' hspace='5'><p>Press 1 or 2.</p>","50","tableNum","2","","","","","6","","","",""
"","html-keyboard-response","170","631819","0.0-2.0-0.28","null","<div style=""font-size:60px;"">+</div>","null","fixation","","","","","","","","","",""
"","html-keyboard-response","171","637118","0.0-2.0-1.28","5298","<img src= images/stimuli/52.png width = '400' height = '251.57232704402514'><p>What came after this object?</p><img src= images/stimuli/17.png width = '400' height = '251.57232704402514' hspace='5'><img src= images/stimuli/30.png width = '400' height = '251.57232704402514' hspace='5'><img src= images/stimuli/83.png width = '400' height = '251.57232704402514' hspace='5'><p>Press 1, 2 or 3.</p>","50","temporalOrder","2","52","images/stimuli/30.png","images/stimuli/83.png","images/stimuli/17.png","6","What came after this object?","14","0","across"
"","html-keyboard-response","172","637619","0.0-2.0-2.28","null","","null","blank","","","","","","","","","",""
"","html-keyboard-response","173","641286","0.0-2.0-3.28","3665","<img src= images/stimuli/52.png width = '400' height = '251.57232704402514'><p>In which type of room was the object?</p><img src= images/stimuli/nw_room.png width = '400' height = '400' hspace='5'><img src= images/stimuli/ww_room.png width = '400' height = '400' hspace='5'><p>Press 1 or 2.</p>","50","roomType","1","","","","","6","","14","",""
"","html-keyboard-response","174","641787","0.0-2.0-4.28","null","","null","blank","","","","","","","","","",""
"","html-keyboard-response","175","643518","0.0-2.0-5.28","1730","<img src= images/stimuli/52.png width = '400' height = '251.57232704402514'><p>At which location in the room was the object?</p><img src= images/stimuli/nw_table.png width = '400' height = '400' hspace='5'><img src= images/stimuli/ww_table.png width = '400' height = '400' hspace='5'><p>Press 1 or 2.</p>","49","tableNum","3","","","","","6","","","",""
"","html-keyboard-response","176","644019","0.0-2.0-0.29","null","<div style=""font-size:60px;"">+</div>","null","fixation","","","","","","","","","",""
"","html-keyboard-response","177","649350","0.0-2.0-1.29","5328","<img src= images/stimuli/68.png width = '400' height = '251.57232704402514'><p>What came after this object?</p><img src= images/stimuli/13.png width = '400' height = '251.57232704402514' hspace='5'><img src= images/stimuli/11.png width = '400' height = '251.57232704402514' hspace='5'><img src= images/stimuli/54.png width = '400' height = '251.57232704402514' hspace='5'><p>Press 1, 2 or 3.</p>","49","temporalOrder","1","68","images/stimuli/13.png","images/stimuli/54.png","images/stimuli/11.png","6","What came after this object?","40","0","across"
"","html-keyboard-response","178","649850","0.0-2.0-2.29","null","","null","blank","","","","","","","","","",""
"","html-keyboard-response","179","651670","0.0-2.0-3.29","1818","<img src= images/stimuli/68.png width = '400' height = '251.57232704402514'><p>In which type of room was the object?</p><img src= images/stimuli/nw_room.png width = '400' height = '400' hspace='5'><img src= images/stimuli/ww_room.png width = '400' height = '400' hspace='5'><p>Press 1 or 2.</p>","50","roomType","1","","","","","6","","40","",""
"","html-keyboard-response","180","652172","0.0-2.0-4.29","null","","null","blank","","","","","","","","","",""
"","html-keyboard-response","181","653462","0.0-2.0-5.29","1288","<img src= images/stimuli/68.png width = '400' height = '251.57232704402514'><p>At which location in the room was the object?</p><img src= images/stimuli/nw_table.png width = '400' height = '400' hspace='5'><img src= images/stimuli/ww_table.png width = '400' height = '400' hspace='5'><p>Press 1 or 2.</p>","50","tableNum","3","","","","","6","","","",""
"","html-keyboard-response","182","653962","0.0-2.0-0.30","null","<div style=""font-size:60px;"">+</div>","null","fixation","","","","","","","","","",""
"","html-keyboard-response","183","657846","0.0-2.0-1.30","3880","<img src= images/stimuli/22.png width = '400' height = '251.57232704402514'><p>What came after this object?</p><img src= images/stimuli/0.png width = '400' height = '251.57232704402514' hspace='5'><img src= images/stimuli/69.png width = '400' height = '251.57232704402514' hspace='5'><img src= images/stimuli/84.png width = '400' height = '251.57232704402514' hspace='5'><p>Press 1, 2 or 3.</p>","50","temporalOrder","3","22","images/stimuli/84.png","images/stimuli/69.png","images/stimuli/0.png","6","What came after this object?","7","0","across"
"","html-keyboard-response","184","658347","0.0-2.0-2.30","null","","null","blank","","","","","","","","","",""
"","html-keyboard-response","185","661014","0.0-2.0-3.30","2666","<img src= images/stimuli/22.png width = '400' height = '251.57232704402514'><p>In which type of room was the object?</p><img src= images/stimuli/nw_room.png width = '400' height = '400' hspace='5'><img src= images/stimuli/ww_room.png width = '400' height = '400' hspace='5'><p>Press 1 or 2.</p>","49","roomType","2","","","","","6","","7","",""
"","html-keyboard-response","186","661515","0.0-2.0-4.30","null","","null","blank","","","","","","","","","",""
"","html-keyboard-response","187","664766","0.0-2.0-5.30","3250","<img src= images/stimuli/22.png width = '400' height = '251.57232704402514'><p>At which location in the room was the object?</p><img src= images/stimuli/nw_table.png width = '400' height = '400' hspace='5'><img src= images/stimuli/ww_table.png width = '400' height = '400' hspace='5'><p>Press 1 or 2.</p>","50","tableNum","3","","","","","6","","","",""
"","html-keyboard-response","188","665268","0.0-2.0-0.31","null","<div style=""font-size:60px;"">+</div>","null","fixation","","","","","","","","","",""
"","html-keyboard-response","189","670438","0.0-2.0-1.31","5169","<img src= images/stimuli/49.png width = '400' height = '251.57232704402514'><p>What came after this object?</p><img src= images/stimuli/31.png width = '400' height = '251.57232704402514' hspace='5'><img src= images/stimuli/24.png width = '400' height = '251.57232704402514' hspace='5'><img src= images/stimuli/48.png width = '400' height = '251.57232704402514' hspace='5'><p>Press 1, 2 or 3.</p>","51","temporalOrder","1","49","images/stimuli/31.png","images/stimuli/24.png","images/stimuli/48.png","6","What came after this object?","26","0","across"
"","html-keyboard-response","190","670939","0.0-2.0-2.31","null","","null","blank","","","","","","","","","",""
"","html-keyboard-response","191","674630","0.0-2.0-3.31","3690","<img src= images/stimuli/49.png width = '400' height = '251.57232704402514'><p>In which type of room was the object?</p><img src= images/stimuli/nw_room.png width = '400' height = '400' hspace='5'><img src= images/stimuli/ww_room.png width = '400' height = '400' hspace='5'><p>Press 1 or 2.</p>","50","roomType","1","","","","","6","","26","",""
"","html-keyboard-response","192","675131","0.0-2.0-4.31","null","","null","blank","","","","","","","","","",""
"","html-keyboard-response","193","676302","0.0-2.0-5.31","1168","<img src= images/stimuli/49.png width = '400' height = '251.57232704402514'><p>At which location in the room was the object?</p><img src= images/stimuli/nw_table.png width = '400' height = '400' hspace='5'><img src= images/stimuli/ww_table.png width = '400' height = '400' hspace='5'><p>Press 1 or 2.</p>","49","tableNum","3","","","","","6","","","",""
"","html-keyboard-response","194","676803","0.0-2.0-0.32","null","<div style=""font-size:60px;"">+</div>","null","fixation","","","","","","","","","",""
"","html-keyboard-response","195","680406","0.0-2.0-1.32","3600","<img src= images/stimuli/25.png width = '400' height = '251.57232704402514'><p>What came after this object?</p><img src= images/stimuli/18.png width = '400' height = '251.57232704402514' hspace='5'><img src= images/stimuli/62.png width = '400' height = '251.57232704402514' hspace='5'><img src= images/stimuli/3.png width = '400' height = '251.57232704402514' hspace='5'><p>Press 1, 2 or 3.</p>","49","temporalOrder","2","25","images/stimuli/62.png","images/stimuli/18.png","images/stimuli/3.png","6","What came after this object?","32","0","across"
"","html-keyboard-response","196","680907","0.0-2.0-2.32","null","","null","blank","","","","","","","","","",""
"","html-keyboard-response","197","683310","0.0-2.0-3.32","2401","<img src= images/stimuli/25.png width = '400' height = '251.57232704402514'><p>In which type of room was the object?</p><img src= images/stimuli/nw_room.png width = '400' height = '400' hspace='5'><img src= images/stimuli/ww_room.png width = '400' height = '400' hspace='5'><p>Press 1 or 2.</p>","49","roomType","1","","","","","6","","32","",""
"","html-keyboard-response","198","683811","0.0-2.0-4.32","null","","null","blank","","","","","","","","","",""
"","html-keyboard-response","199","685726","0.0-2.0-5.32","1912","<img src= images/stimuli/25.png width = '400' height = '251.57232704402514'><p>At which location in the room was the object?</p><img src= images/stimuli/nw_table.png width = '400' height = '400' hspace='5'><img src= images/stimuli/ww_table.png width = '400' height = '400' hspace='5'><p>Press 1 or 2.</p>","50","tableNum","3","","","","","6","","","",""
"","html-keyboard-response","200","686227","0.0-2.0-0.33","null","<div style=""font-size:60px;"">+</div>","null","fixation","","","","","","","","","",""
"","html-keyboard-response","201","690502","0.0-2.0-1.33","4272","<img src= images/stimuli/72.png width = '400' height = '251.57232704402514'><p>What came after this object?</p><img src= images/stimuli/5.png width = '400' height = '251.57232704402514' hspace='5'><img src= images/stimuli/53.png width = '400' height = '251.57232704402514' hspace='5'><img src= images/stimuli/86.png width = '400' height = '251.57232704402514' hspace='5'><p>Press 1, 2 or 3.</p>","49","temporalOrder","3","72","images/stimuli/86.png","images/stimuli/53.png","images/stimuli/5.png","6","What came after this object?","15","0","across"
"","html-keyboard-response","202","691003","0.0-2.0-2.33","null","","null","blank","","","","","","","","","",""
"","html-keyboard-response","203","693142","0.0-2.0-3.33","2138","<img src= images/stimuli/72.png width = '400' height = '251.57232704402514'><p>In which type of room was the object?</p><img src= images/stimuli/nw_room.png width = '400' height = '400' hspace='5'><img src= images/stimuli/ww_room.png width = '400' height = '400' hspace='5'><p>Press 1 or 2.</p>","50","roomType","2","","","","","6","","15","",""
"","html-keyboard-response","204","693643","0.0-2.0-4.33","null","","null","blank","","","","","","","","","",""
"","html-keyboard-response","205","695862","0.0-2.0-5.33","2218","<img src= images/stimuli/72.png width = '400' height = '251.57232704402514'><p>At which location in the room was the object?</p><img src= images/stimuli/nw_table.png width = '400' height = '400' hspace='5'><img src= images/stimuli/ww_table.png width = '400' height = '400' hspace='5'><p>Press 1 or 2.</p>","50","tableNum","3","","","","","6","","","",""
"","html-keyboard-response","206","696363","0.0-2.0-0.34","null","<div style=""font-size:60px;"">+</div>","null","fixation","","","","","","","","","",""
"","html-keyboard-response","207","700558","0.0-2.0-1.34","4193","<img src= images/stimuli/23.png width = '400' height = '251.57232704402514'><p>What came after this object?</p><img src= images/stimuli/57.png width = '400' height = '251.57232704402514' hspace='5'><img src= images/stimuli/3.png width = '400' height = '251.57232704402514' hspace='5'><img src= images/stimuli/54.png width = '400' height = '251.57232704402514' hspace='5'><p>Press 1, 2 or 3.</p>","50","temporalOrder","1","23","images/stimuli/57.png","images/stimuli/3.png","images/stimuli/54.png","6","What came after this object?","36","0","across"
"","html-keyboard-response","208","701059","0.0-2.0-2.34","null","","null","blank","","","","","","","","","",""
"","html-keyboard-response","209","702926","0.0-2.0-3.34","1865","<img src= images/stimuli/23.png width = '400' height = '251.57232704402514'><p>In which type of room was the object?</p><img src= images/stimuli/nw_room.png width = '400' height = '400' hspace='5'><img src= images/stimuli/ww_room.png width = '400' height = '400' hspace='5'><p>Press 1 or 2.</p>","49","roomType","1","","","","","6","","36","",""
"","html-keyboard-response","210","703426","0.0-2.0-4.34","null","","null","blank","","","","","","","","","",""
"","html-keyboard-response","211","705630","0.0-2.0-5.34","2202","<img src= images/stimuli/23.png width = '400' height = '251.57232704402514'><p>At which location in the room was the object?</p><img src= images/stimuli/nw_table.png width = '400' height = '400' hspace='5'><img src= images/stimuli/ww_table.png width = '400' height = '400' hspace='5'><p>Press 1 or 2.</p>","50","tableNum","3","","","","","6","","","",""
"","html-keyboard-response","212","706131","0.0-2.0-0.35","null","<div style=""font-size:60px;"">+</div>","null","fixation","","","","","","","","","",""
"","html-keyboard-response","213","711743","0.0-2.0-1.35","5609","<img src= images/stimuli/69.png width = '400' height = '251.57232704402514'><p>What came after this object?</p><img src= images/stimuli/81.png width = '400' height = '251.57232704402514' hspace='5'><img src= images/stimuli/44.png width = '400' height = '251.57232704402514' hspace='5'><img src= images/stimuli/27.png width = '400' height = '251.57232704402514' hspace='5'><p>Press 1, 2 or 3.</p>","49","temporalOrder","1","69","images/stimuli/81.png","images/stimuli/44.png","images/stimuli/27.png","6","What came after this object?","6","1","within-no-walls"
"","html-keyboard-response","214","712243","0.0-2.0-2.35","null","","null","blank","","","","","","","","","",""
"","html-keyboard-response","215","714166","0.0-2.0-3.35","1921","<img src= images/stimuli/69.png width = '400' height = '251.57232704402514'><p>In which type of room was the object?</p><img src= images/stimuli/nw_room.png width = '400' height = '400' hspace='5'><img src= images/stimuli/ww_room.png width = '400' height = '400' hspace='5'><p>Press 1 or 2.</p>","49","roomType","1","","","","","6","","6","",""
"","html-keyboard-response","216","714667","0.0-2.0-4.35","null","","null","blank","","","","","","","","","",""
"","html-keyboard-response","217","716198","0.0-2.0-5.35","1530","<img src= images/stimuli/69.png width = '400' height = '251.57232704402514'><p>At which location in the room was the object?</p><img src= images/stimuli/nw_table.png width = '400' height = '400' hspace='5'><img src= images/stimuli/ww_table.png width = '400' height = '400' hspace='5'><p>Press 1 or 2.</p>","50","tableNum","2","","","","","6","","","",""
"","html-keyboard-response","218","716700","0.0-2.0-0.36","null","<div style=""font-size:60px;"">+</div>","null","fixation","","","","","","","","","",""
"","html-keyboard-response","219","720958","0.0-2.0-1.36","4255","<img src= images/stimuli/54.png width = '400' height = '251.57232704402514'><p>What came after this object?</p><img src= images/stimuli/14.png width = '400' height = '251.57232704402514' hspace='5'><img src= images/stimuli/19.png width = '400' height = '251.57232704402514' hspace='5'><img src= images/stimuli/55.png width = '400' height = '251.57232704402514' hspace='5'><p>Press 1, 2 or 3.</p>","49","temporalOrder","1","54","images/stimuli/14.png","images/stimuli/55.png","images/stimuli/19.png","6","What came after this object?","39","1","within-walls"
"","html-keyboard-response","220","721458","0.0-2.0-2.36","null","","null","blank","","","","","","","","","",""
"","html-keyboard-response","221","723542","0.0-2.0-3.36","2082","<img src= images/stimuli/54.png width = '400' height = '251.57232704402514'><p>In which type of room was the object?</p><img src= images/stimuli/nw_room.png width = '400' height = '400' hspace='5'><img src= images/stimuli/ww_room.png width = '400' height = '400' hspace='5'><p>Press 1 or 2.</p>","50","roomType","2","","","","","6","","39","",""
"","html-keyboard-response","222","724042","0.0-2.0-4.36","null","","null","blank","","","","","","","","","",""
"","html-keyboard-response","223","725718","0.0-2.0-5.36","1674","<img src= images/stimuli/54.png width = '400' height = '251.57232704402514'><p>At which location in the room was the object?</p><img src= images/stimuli/nw_table.png width = '400' height = '400' hspace='5'><img src= images/stimuli/ww_table.png width = '400' height = '400' hspace='5'><p>Press 1 or 2.</p>","49","tableNum","2","","","","","6","","","",""
"","html-keyboard-response","224","726219","0.0-2.0-0.37","null","<div style=""font-size:60px;"">+</div>","null","fixation","","","","","","","","","",""
"","html-keyboard-response","225","729686","0.0-2.0-1.37","3464","<img src= images/stimuli/9.png width = '400' height = '251.57232704402514'><p>What came after this object?</p><img src= images/stimuli/78.png width = '400' height = '251.57232704402514' hspace='5'><img src= images/stimuli/13.png width = '400' height = '251.57232704402514' hspace='5'><img src= images/stimuli/11.png width = '400' height = '251.57232704402514' hspace='5'><p>Press 1, 2 or 3.</p>","49","temporalOrder","3","9","images/stimuli/11.png","images/stimuli/13.png","images/stimuli/78.png","6","What came after this object?","42","0","across"
"","html-keyboard-response","226","730187","0.0-2.0-2.37","null","","null","blank","","","","","","","","","",""
"","html-keyboard-response","227","732782","0.0-2.0-3.37","2594","<img src= images/stimuli/9.png width = '400' height = '251.57232704402514'><p>In which type of room was the object?</p><img src= images/stimuli/nw_room.png width = '400' height = '400' hspace='5'><img src= images/stimuli/ww_room.png width = '400' height = '400' hspace='5'><p>Press 1 or 2.</p>","50","roomType","1","","","","","6","","42","",""
"","html-keyboard-response","228","733283","0.0-2.0-4.37","null","","null","blank","","","","","","","","","",""
"","html-keyboard-response","229","734582","0.0-2.0-5.37","1298","<img src= images/stimuli/9.png width = '400' height = '251.57232704402514'><p>At which location in the room was the object?</p><img src= images/stimuli/nw_table.png width = '400' height = '400' hspace='5'><img src= images/stimuli/ww_table.png width = '400' height = '400' hspace='5'><p>Press 1 or 2.</p>","49","tableNum","3","","","","","6","","","",""
"","html-keyboard-response","230","735084","0.0-2.0-0.38","null","<div style=""font-size:60px;"">+</div>","null","fixation","","","","","","","","","",""
"","html-keyboard-response","231","738398","0.0-2.0-1.38","3312","<img src= images/stimuli/45.png width = '400' height = '251.57232704402514'><p>What came after this object?</p><img src= images/stimuli/31.png width = '400' height = '251.57232704402514' hspace='5'><img src= images/stimuli/18.png width = '400' height = '251.57232704402514' hspace='5'><img src= images/stimuli/48.png width = '400' height = '251.57232704402514' hspace='5'><p>Press 1, 2 or 3.</p>","49","temporalOrder","3","45","images/stimuli/48.png","images/stimuli/31.png","images/stimuli/18.png","6","What came after this object?","28","0","across"
"","html-keyboard-response","232","738899","0.0-2.0-2.38","null","","null","blank","","","","","","","","","",""
"","html-keyboard-response","233","740878","0.0-2.0-3.38","1978","<img src= images/stimuli/45.png width = '400' height = '251.57232704402514'><p>In which type of room was the object?</p><img src= images/stimuli/nw_room.png width = '400' height = '400' hspace='5'><img src= images/stimuli/ww_room.png width = '400' height = '400' hspace='5'><p>Press 1 or 2.</p>","49","roomType","1","","","","","6","","28","",""
"","html-keyboard-response","234","741378","0.0-2.0-4.38","null","","null","blank","","","","","","","","","",""
"","html-keyboard-response","235","743830","0.0-2.0-5.38","2450","<img src= images/stimuli/45.png width = '400' height = '251.57232704402514'><p>At which location in the room was the object?</p><img src= images/stimuli/nw_table.png width = '400' height = '400' hspace='5'><img src= images/stimuli/ww_table.png width = '400' height = '400' hspace='5'><p>Press 1 or 2.</p>","49","tableNum","3","","","","","6","","","",""
"","html-keyboard-response","236","744331","0.0-2.0-0.39","null","<div style=""font-size:60px;"">+</div>","null","fixation","","","","","","","","","",""
"","html-keyboard-response","237","747030","0.0-2.0-1.39","2698","<img src= images/stimuli/41.png width = '400' height = '251.57232704402514'><p>What came after this object?</p><img src= images/stimuli/67.png width = '400' height = '251.57232704402514' hspace='5'><img src= images/stimuli/25.png width = '400' height = '251.57232704402514' hspace='5'><img src= images/stimuli/40.png width = '400' height = '251.57232704402514' hspace='5'><p>Press 1, 2 or 3.</p>","51","temporalOrder","2","41","images/stimuli/25.png","images/stimuli/40.png","images/stimuli/67.png","6","What came after this object?","32","1","within-no-walls"
"","html-keyboard-response","238","747531","0.0-2.0-2.39","null","","null","blank","","","","","","","","","",""
"","html-keyboard-response","239","749519","0.0-2.0-3.39","1985","<img src= images/stimuli/41.png width = '400' height = '251.57232704402514'><p>In which type of room was the object?</p><img src= images/stimuli/nw_room.png width = '400' height = '400' hspace='5'><img src= images/stimuli/ww_room.png width = '400' height = '400' hspace='5'><p>Press 1 or 2.</p>","50","roomType","1","","","","","6","","32","",""
"","html-keyboard-response","240","750019","0.0-2.0-4.39","null","","null","blank","","","","","","","","","",""
"","html-keyboard-response","241","753206","0.0-2.0-5.39","3184","<img src= images/stimuli/41.png width = '400' height = '251.57232704402514'><p>At which location in the room was the object?</p><img src= images/stimuli/nw_table.png width = '400' height = '400' hspace='5'><img src= images/stimuli/ww_table.png width = '400' height = '400' hspace='5'><p>Press 1 or 2.</p>","50","tableNum","2","","","","","6","","","",""
"","html-keyboard-response","242","753706","0.0-2.0-0.40","null","<div style=""font-size:60px;"">+</div>","null","fixation","","","","","","","","","",""
"","html-keyboard-response","243","758094","0.0-2.0-1.40","4385","<img src= images/stimuli/8.png width = '400' height = '251.57232704402514'><p>What came after this object?</p><img src= images/stimuli/61.png width = '400' height = '251.57232704402514' hspace='5'><img src= images/stimuli/83.png width = '400' height = '251.57232704402514' hspace='5'><img src= images/stimuli/12.png width = '400' height = '251.57232704402514' hspace='5'><p>Press 1, 2 or 3.</p>","50","temporalOrder","1","8","images/stimuli/61.png","images/stimuli/12.png","images/stimuli/83.png","6","What came after this object?","10","0","across"
"","html-keyboard-response","244","758595","0.0-2.0-2.40","null","","null","blank","","","","","","","","","",""
"","html-keyboard-response","245","760134","0.0-2.0-3.40","1538","<img src= images/stimuli/8.png width = '400' height = '251.57232704402514'><p>In which type of room was the object?</p><img src= images/stimuli/nw_room.png width = '400' height = '400' hspace='5'><img src= images/stimuli/ww_room.png width = '400' height = '400' hspace='5'><p>Press 1 or 2.</p>","50","roomType","1","","","","","6","","10","",""
"","html-keyboard-response","246","760636","0.0-2.0-4.40","null","","null","blank","","","","","","","","","",""
"","html-keyboard-response","247","763214","0.0-2.0-5.40","2576","<img src= images/stimuli/8.png width = '400' height = '251.57232704402514'><p>At which location in the room was the object?</p><img src= images/stimuli/nw_table.png width = '400' height = '400' hspace='5'><img src= images/stimuli/ww_table.png width = '400' height = '400' hspace='5'><p>Press 1 or 2.</p>","49","tableNum","3","","","","","6","","","",""
"","html-keyboard-response","248","763715","0.0-2.0-0.41","null","<div style=""font-size:60px;"">+</div>","null","fixation","","","","","","","","","",""
"","html-keyboard-response","249","768318","0.0-2.0-1.41","4601","<img src= images/stimuli/62.png width = '400' height = '251.57232704402514'><p>What came after this object?</p><img src= images/stimuli/34.png width = '400' height = '251.57232704402514' hspace='5'><img src= images/stimuli/60.png width = '400' height = '251.57232704402514' hspace='5'><img src= images/stimuli/82.png width = '400' height = '251.57232704402514' hspace='5'><p>Press 1, 2 or 3.</p>","50","temporalOrder","3","62","images/stimuli/82.png","images/stimuli/60.png","images/stimuli/34.png","6","What came after this object?","33","1","within-walls"
"","html-keyboard-response","250","768819","0.0-2.0-2.41","null","","null","blank","","","","","","","","","",""
"","html-keyboard-response","251","771286","0.0-2.0-3.41","2465","<img src= images/stimuli/62.png width = '400' height = '251.57232704402514'><p>In which type of room was the object?</p><img src= images/stimuli/nw_room.png width = '400' height = '400' hspace='5'><img src= images/stimuli/ww_room.png width = '400' height = '400' hspace='5'><p>Press 1 or 2.</p>","50","roomType","2","","","","","6","","33","",""
"","html-keyboard-response","252","771787","0.0-2.0-4.41","null","","null","blank","","","","","","","","","",""
"","html-keyboard-response","253","774470","0.0-2.0-5.41","2683","<img src= images/stimuli/62.png width = '400' height = '251.57232704402514'><p>At which location in the room was the object?</p><img src= images/stimuli/nw_table.png width = '400' height = '400' hspace='5'><img src= images/stimuli/ww_table.png width = '400' height = '400' hspace='5'><p>Press 1 or 2.</p>","49","tableNum","2","","","","","6","","","",""
"","html-keyboard-response","254","774970","0.0-2.0-0.42","null","<div style=""font-size:60px;"">+</div>","null","fixation","","","","","","","","","",""
"","html-keyboard-response","255","780006","0.0-2.0-1.42","5033","<img src= images/stimuli/59.png width = '400' height = '251.57232704402514'><p>What came after this object?</p><img src= images/stimuli/45.png width = '400' height = '251.57232704402514' hspace='5'><img src= images/stimuli/40.png width = '400' height = '251.57232704402514' hspace='5'><img src= images/stimuli/49.png width = '400' height = '251.57232704402514' hspace='5'><p>Press 1, 2 or 3.</p>","49","temporalOrder","1","59","images/stimuli/45.png","images/stimuli/49.png","images/stimuli/40.png","6","What came after this object?","28","1","within-no-walls"
"","html-keyboard-response","256","780507","0.0-2.0-2.42","null","","null","blank","","","","","","","","","",""
"","html-keyboard-response","257","784534","0.0-2.0-3.42","4024","<img src= images/stimuli/59.png width = '400' height = '251.57232704402514'><p>In which type of room was the object?</p><img src= images/stimuli/nw_room.png width = '400' height = '400' hspace='5'><img src= images/stimuli/ww_room.png width = '400' height = '400' hspace='5'><p>Press 1 or 2.</p>","49","roomType","1","","","","","6","","28","",""
"","html-keyboard-response","258","785035","0.0-2.0-4.42","null","","null","blank","","","","","","","","","",""
"","html-keyboard-response","259","786934","0.0-2.0-5.42","1897","<img src= images/stimuli/59.png width = '400' height = '251.57232704402514'><p>At which location in the room was the object?</p><img src= images/stimuli/nw_table.png width = '400' height = '400' hspace='5'><img src= images/stimuli/ww_table.png width = '400' height = '400' hspace='5'><p>Press 1 or 2.</p>","49","tableNum","2","","","","","6","","","",""
"","html-keyboard-response","260","787434","0.0-2.0-0.43","null","<div style=""font-size:60px;"">+</div>","null","fixation","","","","","","","","","",""
"","html-keyboard-response","261","790926","0.0-2.0-1.43","3490","<img src= images/stimuli/10.png width = '400' height = '251.57232704402514'><p>What came after this object?</p><img src= images/stimuli/25.png width = '400' height = '251.57232704402514' hspace='5'><img src= images/stimuli/40.png width = '400' height = '251.57232704402514' hspace='5'><img src= images/stimuli/45.png width = '400' height = '251.57232704402514' hspace='5'><p>Press 1, 2 or 3.</p>","49","temporalOrder","2","10","images/stimuli/40.png","images/stimuli/45.png","images/stimuli/25.png","6","What came after this object?","30","1","within-no-walls"
"","html-keyboard-response","262","791426","0.0-2.0-2.43","null","","null","blank","","","","","","","","","",""
"","html-keyboard-response","263","792822","0.0-2.0-3.43","1394","<img src= images/stimuli/10.png width = '400' height = '251.57232704402514'><p>In which type of room was the object?</p><img src= images/stimuli/nw_room.png width = '400' height = '400' hspace='5'><img src= images/stimuli/ww_room.png width = '400' height = '400' hspace='5'><p>Press 1 or 2.</p>","50","roomType","1","","","","","6","","30","",""
"","html-keyboard-response","264","793322","0.0-2.0-4.43","null","","null","blank","","","","","","","","","",""
"","html-keyboard-response","265","794966","0.0-2.0-5.43","1642","<img src= images/stimuli/10.png width = '400' height = '251.57232704402514'><p>At which location in the room was the object?</p><img src= images/stimuli/nw_table.png width = '400' height = '400' hspace='5'><img src= images/stimuli/ww_table.png width = '400' height = '400' hspace='5'><p>Press 1 or 2.</p>","50","tableNum","2","","","","","6","","","",""
"","html-keyboard-response","266","795467","0.0-2.0-0.44","null","<div style=""font-size:60px;"">+</div>","null","fixation","","","","","","","","","",""
"","html-keyboard-response","267","799814","0.0-2.0-1.44","4345","<img src= images/stimuli/30.png width = '400' height = '251.57232704402514'><p>What came after this object?</p><img src= images/stimuli/36.png width = '400' height = '251.57232704402514' hspace='5'><img src= images/stimuli/72.png width = '400' height = '251.57232704402514' hspace='5'><img src= images/stimuli/64.png width = '400' height = '251.57232704402514' hspace='5'><p>Press 1, 2 or 3.</p>","49","temporalOrder","2","30","images/stimuli/72.png","images/stimuli/64.png","images/stimuli/36.png","6","What came after this object?","15","1","within-walls"
"","html-keyboard-response","268","800315","0.0-2.0-2.44","null","","null","blank","","","","","","","","","",""
"","html-keyboard-response","269","801638","0.0-2.0-3.44","1321","<img src= images/stimuli/30.png width = '400' height = '251.57232704402514'><p>In which type of room was the object?</p><img src= images/stimuli/nw_room.png width = '400' height = '400' hspace='5'><img src= images/stimuli/ww_room.png width = '400' height = '400' hspace='5'><p>Press 1 or 2.</p>","49","roomType","2","","","","","6","","15","",""
"","html-keyboard-response","270","802139","0.0-2.0-4.44","null","","null","blank","","","","","","","","","",""
"","html-keyboard-response","271","803574","0.0-2.0-5.44","1433","<img src= images/stimuli/30.png width = '400' height = '251.57232704402514'><p>At which location in the room was the object?</p><img src= images/stimuli/nw_table.png width = '400' height = '400' hspace='5'><img src= images/stimuli/ww_table.png width = '400' height = '400' hspace='5'><p>Press 1 or 2.</p>","50","tableNum","2","","","","","6","","","",""
"","html-keyboard-response","272","804075","0.0-2.0-0.45","null","<div style=""font-size:60px;"">+</div>","null","fixation","","","","","","","","","",""
"","html-keyboard-response","273","807414","0.0-2.0-1.45","3337","<img src= images/stimuli/12.png width = '400' height = '251.57232704402514'><p>What came after this object?</p><img src= images/stimuli/22.png width = '400' height = '251.57232704402514' hspace='5'><img src= images/stimuli/73.png width = '400' height = '251.57232704402514' hspace='5'><img src= images/stimuli/46.png width = '400' height = '251.57232704402514' hspace='5'><p>Press 1, 2 or 3.</p>","49","temporalOrder","2","12","images/stimuli/73.png","images/stimuli/22.png","images/stimuli/46.png","6","What came after this object?","9","1","within-walls"
"","html-keyboard-response","274","807914","0.0-2.0-2.45","null","","null","blank","","","","","","","","","",""
"","html-keyboard-response","275","810638","0.0-2.0-3.45","2722","<img src= images/stimuli/12.png width = '400' height = '251.57232704402514'><p>In which type of room was the object?</p><img src= images/stimuli/nw_room.png width = '400' height = '400' hspace='5'><img src= images/stimuli/ww_room.png width = '400' height = '400' hspace='5'><p>Press 1 or 2.</p>","50","roomType","2","","","","","6","","9","",""
"","html-keyboard-response","276","811139","0.0-2.0-4.45","null","","null","blank","","","","","","","","","",""
"","html-keyboard-response","277","812494","0.0-2.0-5.45","1354","<img src= images/stimuli/12.png width = '400' height = '251.57232704402514'><p>At which location in the room was the object?</p><img src= images/stimuli/nw_table.png width = '400' height = '400' hspace='5'><img src= images/stimuli/ww_table.png width = '400' height = '400' hspace='5'><p>Press 1 or 2.</p>","50","tableNum","2","","","","","6","","","",""
"","html-keyboard-response","278","812994","0.0-2.0-0.46","null","<div style=""font-size:60px;"">+</div>","null","fixation","","","","","","","","","",""
"","html-keyboard-response","279","816254","0.0-2.0-1.46","3258","<img src= images/stimuli/17.png width = '400' height = '251.57232704402514'><p>What came after this object?</p><img src= images/stimuli/15.png width = '400' height = '251.57232704402514' hspace='5'><img src= images/stimuli/36.png width = '400' height = '251.57232704402514' hspace='5'><img src= images/stimuli/72.png width = '400' height = '251.57232704402514' hspace='5'><p>Press 1, 2 or 3.</p>","51","temporalOrder","2","17","images/stimuli/36.png","images/stimuli/72.png","images/stimuli/15.png","6","What came after this object?","17","1","within-walls"
"","html-keyboard-response","280","816755","0.0-2.0-2.46","null","","null","blank","","","","","","","","","",""
"","html-keyboard-response","281","819038","0.0-2.0-3.46","2282","<img src= images/stimuli/17.png width = '400' height = '251.57232704402514'><p>In which type of room was the object?</p><img src= images/stimuli/nw_room.png width = '400' height = '400' hspace='5'><img src= images/stimuli/ww_room.png width = '400' height = '400' hspace='5'><p>Press 1 or 2.</p>","50","roomType","2","","","","","6","","17","",""
"","html-keyboard-response","282","819539","0.0-2.0-4.46","null","","null","blank","","","","","","","","","",""
"","html-keyboard-response","283","821238","0.0-2.0-5.46","1698","<img src= images/stimuli/17.png width = '400' height = '251.57232704402514'><p>At which location in the room was the object?</p><img src= images/stimuli/nw_table.png width = '400' height = '400' hspace='5'><img src= images/stimuli/ww_table.png width = '400' height = '400' hspace='5'><p>Press 1 or 2.</p>","49","tableNum","2","","","","","6","","","",""
"","html-keyboard-response","284","821740","0.0-2.0-0.47","null","<div style=""font-size:60px;"">+</div>","null","fixation","","","","","","","","","",""
"","html-keyboard-response","285","824414","0.0-2.0-1.47","2672","<img src= images/stimuli/55.png width = '400' height = '251.57232704402514'><p>What came after this object?</p><img src= images/stimuli/2.png width = '400' height = '251.57232704402514' hspace='5'><img src= images/stimuli/21.png width = '400' height = '251.57232704402514' hspace='5'><img src= images/stimuli/16.png width = '400' height = '251.57232704402514' hspace='5'><p>Press 1, 2 or 3.</p>","49","temporalOrder","2","55","images/stimuli/21.png","images/stimuli/16.png","images/stimuli/2.png","6","What came after this object?","37","0","across"
"","html-keyboard-response","286","824914","0.0-2.0-2.47","null","","null","blank","","","","","","","","","",""
"","html-keyboard-response","287","826926","0.0-2.0-3.47","2010","<img src= images/stimuli/55.png width = '400' height = '251.57232704402514'><p>In which type of room was the object?</p><img src= images/stimuli/nw_room.png width = '400' height = '400' hspace='5'><img src= images/stimuli/ww_room.png width = '400' height = '400' hspace='5'><p>Press 1 or 2.</p>","50","roomType","2","","","","","6","","37","",""
"","html-keyboard-response","288","827428","0.0-2.0-4.47","null","","null","blank","","","","","","","","","",""
"","html-keyboard-response","289","828566","0.0-2.0-5.47","1136","<img src= images/stimuli/55.png width = '400' height = '251.57232704402514'><p>At which location in the room was the object?</p><img src= images/stimuli/nw_table.png width = '400' height = '400' hspace='5'><img src= images/stimuli/ww_table.png width = '400' height = '400' hspace='5'><p>Press 1 or 2.</p>","49","tableNum","3","","","","","6","","","",""
"","html-keyboard-response","290","829067","0.0-2.0-0.48","null","<div style=""font-size:60px;"">+</div>","null","fixation","","","","","","","","","",""
"","html-keyboard-response","291","832198","0.0-2.0-1.48","3130","<img src= images/stimuli/57.png width = '400' height = '251.57232704402514'><p>What came after this object?</p><img src= images/stimuli/55.png width = '400' height = '251.57232704402514' hspace='5'><img src= images/stimuli/14.png width = '400' height = '251.57232704402514' hspace='5'><img src= images/stimuli/34.png width = '400' height = '251.57232704402514' hspace='5'><p>Press 1, 2 or 3.</p>","50","temporalOrder","1","57","images/stimuli/55.png","images/stimuli/34.png","images/stimuli/14.png","6","What came after this object?","37","1","within-walls"
"","html-keyboard-response","292","832699","0.0-2.0-2.48","null","","null","blank","","","","","","","","","",""
"","html-keyboard-response","293","834614","0.0-2.0-3.48","1913","<img src= images/stimuli/57.png width = '400' height = '251.57232704402514'><p>In which type of room was the object?</p><img src= images/stimuli/nw_room.png width = '400' height = '400' hspace='5'><img src= images/stimuli/ww_room.png width = '400' height = '400' hspace='5'><p>Press 1 or 2.</p>","50","roomType","2","","","","","6","","37","",""
"","html-keyboard-response","294","835115","0.0-2.0-4.48","null","","null","blank","","","","","","","","","",""
"","html-keyboard-response","295","836119","0.0-2.0-5.48","1001","<img src= images/stimuli/57.png width = '400' height = '251.57232704402514'><p>At which location in the room was the object?</p><img src= images/stimuli/nw_table.png width = '400' height = '400' hspace='5'><img src= images/stimuli/ww_table.png width = '400' height = '400' hspace='5'><p>Press 1 or 2.</p>","49","tableNum","2","","","","","6","","","",""
"","html-keyboard-response","296","836619","0.0-2.0-0.49","null","<div style=""font-size:60px;"">+</div>","null","fixation","","","","","","","","","",""
"","html-keyboard-response","297","840143","0.0-2.0-1.49","3520","<img src= images/stimuli/51.png width = '400' height = '251.57232704402514'><p>What came after this object?</p><img src= images/stimuli/79.png width = '400' height = '251.57232704402514' hspace='5'><img src= images/stimuli/63.png width = '400' height = '251.57232704402514' hspace='5'><img src= images/stimuli/87.png width = '400' height = '251.57232704402514' hspace='5'><p>Press 1, 2 or 3.</p>","51","temporalOrder","1","51","images/stimuli/79.png","images/stimuli/63.png","images/stimuli/87.png","6","What came after this object?","20","0","across"
"","html-keyboard-response","298","840644","0.0-2.0-2.49","null","","null","blank","","","","","","","","","",""
"","html-keyboard-response","299","842910","0.0-2.0-3.49","2265","<img src= images/stimuli/51.png width = '400' height = '251.57232704402514'><p>In which type of room was the object?</p><img src= images/stimuli/nw_room.png width = '400' height = '400' hspace='5'><img src= images/stimuli/ww_room.png width = '400' height = '400' hspace='5'><p>Press 1 or 2.</p>","50","roomType","1","","","","","6","","20","",""
"","html-keyboard-response","300","843411","0.0-2.0-4.49","null","","null","blank","","","","","","","","","",""
"","html-keyboard-response","301","844958","0.0-2.0-5.49","1546","<img src= images/stimuli/51.png width = '400' height = '251.57232704402514'><p>At which location in the room was the object?</p><img src= images/stimuli/nw_table.png width = '400' height = '400' hspace='5'><img src= images/stimuli/ww_table.png width = '400' height = '400' hspace='5'><p>Press 1 or 2.</p>","49","tableNum","3","","","","","6","","","",""
"","html-keyboard-response","302","845458","0.0-2.0-0.50","null","<div style=""font-size:60px;"">+</div>","null","fixation","","","","","","","","","",""
"","html-keyboard-response","303","847766","0.0-2.0-1.50","2305","<img src= images/stimuli/73.png width = '400' height = '251.57232704402514'><p>What came after this object?</p><img src= images/stimuli/84.png width = '400' height = '251.57232704402514' hspace='5'><img src= images/stimuli/0.png width = '400' height = '251.57232704402514' hspace='5'><img src= images/stimuli/32.png width = '400' height = '251.57232704402514' hspace='5'><p>Press 1, 2 or 3.</p>","50","temporalOrder","2","73","images/stimuli/0.png","images/stimuli/84.png","images/stimuli/32.png","6","What came after this object?","9","0","across"
"","html-keyboard-response","304","848267","0.0-2.0-2.50","null","","null","blank","","","","","","","","","",""
"","html-keyboard-response","305","850190","0.0-2.0-3.50","1922","<img src= images/stimuli/73.png width = '400' height = '251.57232704402514'><p>In which type of room was the object?</p><img src= images/stimuli/nw_room.png width = '400' height = '400' hspace='5'><img src= images/stimuli/ww_room.png width = '400' height = '400' hspace='5'><p>Press 1 or 2.</p>","49","roomType","2","","","","","6","","9","",""
"","html-keyboard-response","306","850691","0.0-2.0-4.50","null","","null","blank","","","","","","","","","",""
"","html-keyboard-response","307","852046","0.0-2.0-5.50","1354","<img src= images/stimuli/73.png width = '400' height = '251.57232704402514'><p>At which location in the room was the object?</p><img src= images/stimuli/nw_table.png width = '400' height = '400' hspace='5'><img src= images/stimuli/ww_table.png width = '400' height = '400' hspace='5'><p>Press 1 or 2.</p>","49","tableNum","3","","","","","6","","","",""
"","html-keyboard-response","308","852547","0.0-2.0-0.51","null","<div style=""font-size:60px;"">+</div>","null","fixation","","","","","","","","","",""
"","html-keyboard-response","309","857302","0.0-2.0-1.51","4754","<img src= images/stimuli/32.png width = '400' height = '251.57232704402514'><p>What came after this object?</p><img src= images/stimuli/52.png width = '400' height = '251.57232704402514' hspace='5'><img src= images/stimuli/8.png width = '400' height = '251.57232704402514' hspace='5'><img src= images/stimuli/43.png width = '400' height = '251.57232704402514' hspace='5'><p>Press 1, 2 or 3.</p>","50","temporalOrder","3","32","images/stimuli/43.png","images/stimuli/8.png","images/stimuli/52.png","6","What came after this object?","12","1","within-no-walls"
"","html-keyboard-response","310","857803","0.0-2.0-2.51","null","","null","blank","","","","","","","","","",""
"","html-keyboard-response","311","861046","0.0-2.0-3.51","3241","<img src= images/stimuli/32.png width = '400' height = '251.57232704402514'><p>In which type of room was the object?</p><img src= images/stimuli/nw_room.png width = '400' height = '400' hspace='5'><img src= images/stimuli/ww_room.png width = '400' height = '400' hspace='5'><p>Press 1 or 2.</p>","50","roomType","1","","","","","6","","12","",""
"","html-keyboard-response","312","861546","0.0-2.0-4.51","null","","null","blank","","","","","","","","","",""
"","html-keyboard-response","313","862695","0.0-2.0-5.51","1146","<img src= images/stimuli/32.png width = '400' height = '251.57232704402514'><p>At which location in the room was the object?</p><img src= images/stimuli/nw_table.png width = '400' height = '400' hspace='5'><img src= images/stimuli/ww_table.png width = '400' height = '400' hspace='5'><p>Press 1 or 2.</p>","50","tableNum","2","","","","","6","","","",""
"","html-keyboard-response","314","863195","0.0-2.0-0.52","null","<div style=""font-size:60px;"">+</div>","null","fixation","","","","","","","","","",""
"","html-keyboard-response","315","866766","0.0-2.0-1.52","3569","<img src= images/stimuli/76.png width = '400' height = '251.57232704402514'><p>What came after this object?</p><img src= images/stimuli/37.png width = '400' height = '251.57232704402514' hspace='5'><img src= images/stimuli/26.png width = '400' height = '251.57232704402514' hspace='5'><img src= images/stimuli/51.png width = '400' height = '251.57232704402514' hspace='5'><p>Press 1, 2 or 3.</p>","49","temporalOrder","3","76","images/stimuli/51.png","images/stimuli/37.png","images/stimuli/26.png","6","What came after this object?","20","1","within-no-walls"
"","html-keyboard-response","316","867267","0.0-2.0-2.52","null","","null","blank","","","","","","","","","",""
"","html-keyboard-response","317","869214","0.0-2.0-3.52","1946","<img src= images/stimuli/76.png width = '400' height = '251.57232704402514'><p>In which type of room was the object?</p><img src= images/stimuli/nw_room.png width = '400' height = '400' hspace='5'><img src= images/stimuli/ww_room.png width = '400' height = '400' hspace='5'><p>Press 1 or 2.</p>","50","roomType","1","","","","","6","","20","",""
"","html-keyboard-response","318","869715","0.0-2.0-4.52","null","","null","blank","","","","","","","","","",""
"","html-keyboard-response","319","870886","0.0-2.0-5.52","1170","<img src= images/stimuli/76.png width = '400' height = '251.57232704402514'><p>At which location in the room was the object?</p><img src= images/stimuli/nw_table.png width = '400' height = '400' hspace='5'><img src= images/stimuli/ww_table.png width = '400' height = '400' hspace='5'><p>Press 1 or 2.</p>","49","tableNum","2","","","","","6","","","",""
"","html-keyboard-response","320","871388","0.0-2.0-0.53","null","<div style=""font-size:60px;"">+</div>","null","fixation","","","","","","","","","",""
"","html-keyboard-response","321","876206","0.0-2.0-1.53","4817","<img src= images/stimuli/0.png width = '400' height = '251.57232704402514'><p>What came after this object?</p><img src= images/stimuli/43.png width = '400' height = '251.57232704402514' hspace='5'><img src= images/stimuli/27.png width = '400' height = '251.57232704402514' hspace='5'><img src= images/stimuli/8.png width = '400' height = '251.57232704402514' hspace='5'><p>Press 1, 2 or 3.</p>","49","temporalOrder","3","0","images/stimuli/8.png","images/stimuli/27.png","images/stimuli/43.png","6","What came after this object?","10","1","within-no-walls"
"","html-keyboard-response","322","876707","0.0-2.0-2.53","null","","null","blank","","","","","","","","","",""
"","html-keyboard-response","323","879270","0.0-2.0-3.53","2561","<img src= images/stimuli/0.png width = '400' height = '251.57232704402514'><p>In which type of room was the object?</p><img src= images/stimuli/nw_room.png width = '400' height = '400' hspace='5'><img src= images/stimuli/ww_room.png width = '400' height = '400' hspace='5'><p>Press 1 or 2.</p>","49","roomType","1","","","","","6","","10","",""
"","html-keyboard-response","324","879771","0.0-2.0-4.53","null","","null","blank","","","","","","","","","",""
