"rt","stimulus","key_press","trial_type","trial_index","time_elapsed","internal_node_id","test_part","worker_id","corr_resp","probe","target","foil1","dist1","foil1Pos","foil2","dist2","foil2Pos","subjCond","questionOrder","counterbalance_condition","question","roomNum","roomType","sameRoom","context","targetTable","foil1Table","foil2Table","imageSize"
"1804.2350000032457","<div align=""center"" style='display: flex; flex-direction: column; margin: auto; flex: 1 1 100%; width: 90%; height: 90%;'><div style=""font-family: 'Open Sans', 'Arial', sans-serif; font-size: 150%; line-height: 1.5em;""><p style=""width: 90%; text-align: justify"">We will now present you with questions to test your memory for the objects presented in the film you just saw. There will be two blocks in this part of the study. In each block we will ask you the same question for each object presented at the top of the screen. <br>Between the blocks you may pause for 1-2 minutes to catch your breath but please do not pause longer. We will tell you when the first block is over. It's important to note that because the question will change in the second block. The progress bar at the very top will show you how much of the task you already completed.<br><br>Press <strong>space</strong> for the next page.","32","html-keyboard-response","0","1814","0.0-0.0","","","","","","","","","","","","","","","","","","","","","","",""
"820.6149999969057","<div align=""center"" style='display: flex; flex-direction: column; margin: auto; flex: 1 1 100%; width: 90%; height: 90%;'><div style=""font-family: 'Open Sans', 'Arial', sans-serif; font-size: 150%; line-height: 1.5em;""><p style=""width: 90%; text-align: justify"">The question for the first block is <i>`In the video you just watched, which one of the three objects at the bottom of the screen appeared <strong>immediately after</strong> this object?`</i>. Under this question you see an image of an object that you saw during the video along with three additional objects at the bottom of the screen. <br><br>Please indicate which of the three objects at the bottom <strong>immediately followed</strong> that object that is currently probed. The objects at the bottom are labelled 1, 2 and 3. To give your response, please press the respective key on your keyboard.<br><br>Note that it's not enough to just select the object that was presented any time point <strong>after</strong> the tested object. Please note that for each question there is only one correct answer.<br><br>Press <strong>space</strong> for the next page.","32","html-keyboard-response","1","4645","0.0-1.0","","","","","","","","","","","","","","","","","","","","","","",""
"648.4799999961979","<div align=""center"" style='display: flex; flex-direction: column; margin: auto; flex: 1 1 100%; width: 90%; height: 90%;'><div style=""font-family: 'Open Sans', 'Arial', sans-serif; font-size: 150%; line-height: 1.5em;""><p style=""width: 90%; text-align: justify"">Please try and give the correct answers to the best of your ability and guess if you do not remember. We are aware that this task is quite challenging but please continue to try to do your best until you have completed the experiment. Don't be discouraged if you feel that you don't remember the correct answers. <br><br>Press <strong>space</strong> to begin the task.","32","html-keyboard-response","2","7304","0.0-2.0","","","","","","","","","","","","","","","","","","","","","","",""
"null","<div style=""font-size:60px;"">+</div>","null","html-keyboard-response","3","9814","0.0-3.0-0.0","fixation","","","","","","","","","","","","","","","","","","","","","",""
"1270.9499999982654","<p>In the video you just watched, which one of the three objects at the bottom of the screen appeared <strong>immediately after</strong> this object?</p><div class='grid'><img class='top' src='images/stimuli/5.png' style='width:343.9644128113879px;height: 267px;'><div class='threeColumn'><img src='images/stimuli/37.png' style='width:343.9644128113879px;height: 267px;'><div class='num'>1</div></div><div class='threeColumn'><img src='images/stimuli/26.png' style='width:343.9644128113879px;height: 267px;'><div class='num'>2</div></div><div class='threeColumn'><img src='images/stimuli/53.png' style='width:343.9644128113879px;height: 267px;'><div class='num'>3</div></div></div>","49","html-keyboard-response","4","11088","0.0-3.0-1.0","temporalOrder1","10387","1","5","images/stimuli/37.png","images/stimuli/53.png","-8","3","images/stimuli/26.png","9","2","0","1","4","In the video you just watched, which one of the three objects at the bottom of the screen appeared <strong>immediately after</strong> this object?","17","m","0","across","3","3","2","0.3167259786476868"
"null","<div style=""font-size:60px;"">+</div>","null","html-keyboard-response","5","11596","0.0-3.0-0.1","fixation","","","","","","","","","","","","","","","","","","","","","",""
"765.6350000033854","<p>In the video you just watched, which one of the three objects at the bottom of the screen appeared <strong>immediately after</strong> this object?</p><div class='grid'><img class='top' src='images/stimuli/79.png' style='width:343.9644128113879px;height: 267px;'><div class='threeColumn'><img src='images/stimuli/29.png' style='width:343.9644128113879px;height: 267px;'><div class='num'>1</div></div><div class='threeColumn'><img src='images/stimuli/33.png' style='width:343.9644128113879px;height: 267px;'><div class='num'>2</div></div><div class='threeColumn'><img src='images/stimuli/43.png' style='width:343.9644128113879px;height: 267px;'><div class='num'>3</div></div></div>","49","html-keyboard-response","6","12364","0.0-3.0-1.1","temporalOrder1","10387","1","79","images/stimuli/29.png","images/stimuli/43.png","-17","3","images/stimuli/33.png","7","2","0","1","4","In the video you just watched, which one of the three objects at the bottom of the screen appeared <strong>immediately after</strong> this object?","20","m","0","across","3","2","2","0.3167259786476868"
"null","<div style=""font-size:60px;"">+</div>","null","html-keyboard-response","7","12882","0.0-3.0-0.2","fixation","","","","","","","","","","","","","","","","","","","","","",""
"4955.134999996517","<p>In the video you just watched, which one of the three objects at the bottom of the screen appeared <strong>immediately after</strong> this object?</p><div class='grid'><img class='top' src='images/stimuli/57.png' style='width:343.9644128113879px;height: 267px;'><div class='threeColumn'><img src='images/stimuli/55.png' style='width:343.9644128113879px;height: 267px;'><div class='num'>1</div></div><div class='threeColumn'><img src='images/stimuli/54.png' style='width:343.9644128113879px;height: 267px;'><div class='num'>2</div></div><div class='threeColumn'><img src='images/stimuli/26.png' style='width:343.9644128113879px;height: 267px;'><div class='num'>3</div></div></div>","49","html-keyboard-response","8","17840","0.0-3.0-1.2","temporalOrder1","10387","1","57","images/stimuli/55.png","images/stimuli/26.png","-29","3","images/stimuli/54.png","4","2","0","1","4","In the video you just watched, which one of the three objects at the bottom of the screen appeared <strong>immediately after</strong> this object?","36","m","0","across","3","2","3","0.3167259786476868"
"null","<div style=""font-size:60px;"">+</div>","null","html-keyboard-response","9","18358","0.0-3.0-0.3","fixation","","","","","","","","","","","","","","","","","","","","","",""
"6847.625000002154","<p>In the video you just watched, which one of the three objects at the bottom of the screen appeared <strong>immediately after</strong> this object?</p><div class='grid'><img class='top' src='images/stimuli/82.png' style='width:343.9644128113879px;height: 267px;'><div class='threeColumn'><img src='images/stimuli/37.png' style='width:343.9644128113879px;height: 267px;'><div class='num'>1</div></div><div class='threeColumn'><img src='images/stimuli/66.png' style='width:343.9644128113879px;height: 267px;'><div class='num'>2</div></div><div class='threeColumn'><img src='images/stimuli/19.png' style='width:343.9644128113879px;height: 267px;'><div class='num'>3</div></div></div>","49","html-keyboard-response","10","25209","0.0-3.0-1.3","temporalOrder1","10387","2","82","images/stimuli/66.png","images/stimuli/37.png","-30","1","images/stimuli/19.png","16","3","0","1","4","In the video you just watched, which one of the three objects at the bottom of the screen appeared <strong>immediately after</strong> this object?","33","m","1","within","2","2","2","0.3167259786476868"
"null","<div style=""font-size:60px;"">+</div>","null","html-keyboard-response","11","25721","0.0-3.0-0.4","fixation","","","","","","","","","","","","","","","","","","","","","",""
"843.1100000016158","<p>In the video you just watched, which one of the three objects at the bottom of the screen appeared <strong>immediately after</strong> this object?</p><div class='grid'><img class='top' src='images/stimuli/84.png' style='width:343.9644128113879px;height: 267px;'><div class='threeColumn'><img src='images/stimuli/47.png' style='width:343.9644128113879px;height: 267px;'><div class='num'>1</div></div><div class='threeColumn'><img src='images/stimuli/27.png' style='width:343.9644128113879px;height: 267px;'><div class='num'>2</div></div><div class='threeColumn'><img src='images/stimuli/63.png' style='width:343.9644128113879px;height: 267px;'><div class='num'>3</div></div></div>","49","html-keyboard-response","12","26567","0.0-3.0-1.4","temporalOrder1","10387","2","84","images/stimuli/27.png","images/stimuli/47.png","-13","1","images/stimuli/63.png","22","3","0","1","4","In the video you just watched, which one of the three objects at the bottom of the screen appeared <strong>immediately after</strong> this object?","7","m","0","across","3","2","3","0.3167259786476868"
"null","<div style=""font-size:60px;"">+</div>","null","html-keyboard-response","13","27084","0.0-3.0-0.5","fixation","","","","","","","","","","","","","","","","","","","","","",""
"698.7200000003213","<p>In the video you just watched, which one of the three objects at the bottom of the screen appeared <strong>immediately after</strong> this object?</p><div class='grid'><img class='top' src='images/stimuli/68.png' style='width:343.9644128113879px;height: 267px;'><div class='threeColumn'><img src='images/stimuli/84.png' style='width:343.9644128113879px;height: 267px;'><div class='num'>1</div></div><div class='threeColumn'><img src='images/stimuli/13.png' style='width:343.9644128113879px;height: 267px;'><div class='num'>2</div></div><div class='threeColumn'><img src='images/stimuli/6.png' style='width:343.9644128113879px;height: 267px;'><div class='num'>3</div></div></div>","49","html-keyboard-response","14","27785","0.0-3.0-1.5","temporalOrder1","10387","2","68","images/stimuli/13.png","images/stimuli/84.png","-65","1","images/stimuli/6.png","6","3","0","1","4","In the video you just watched, which one of the three objects at the bottom of the screen appeared <strong>immediately after</strong> this object?","40","m","1","within","2","3","2","0.3167259786476868"
"null","<div style=""font-size:60px;"">+</div>","null","html-keyboard-response","15","28301","0.0-3.0-0.6","fixation","","","","","","","","","","","","","","","","","","","","","",""
"1942.0499999978347","<p>In the video you just watched, which one of the three objects at the bottom of the screen appeared <strong>immediately after</strong> this object?</p><div class='grid'><img class='top' src='images/stimuli/72.png' style='width:343.9644128113879px;height: 267px;'><div class='threeColumn'><img src='images/stimuli/22.png' style='width:343.9644128113879px;height: 267px;'><div class='num'>1</div></div><div class='threeColumn'><img src='images/stimuli/79.png' style='width:343.9644128113879px;height: 267px;'><div class='num'>2</div></div><div class='threeColumn'><img src='images/stimuli/86.png' style='width:343.9644128113879px;height: 267px;'><div class='num'>3</div></div></div>","50","html-keyboard-response","16","30246","0.0-3.0-1.6","temporalOrder1","10387","3","72","images/stimuli/86.png","images/stimuli/22.png","-16","1","images/stimuli/79.png","11","2","0","1","4","In the video you just watched, which one of the three objects at the bottom of the screen appeared <strong>immediately after</strong> this object?","15","m","1","within","2","2","3","0.3167259786476868"
"null","<div style=""font-size:60px;"">+</div>","null","html-keyboard-response","17","30750","0.0-3.0-0.7","fixation","","","","","","","","","","","","","","","","","","","","","",""
"933.9699999982258","<p>In the video you just watched, which one of the three objects at the bottom of the screen appeared <strong>immediately after</strong> this object?</p><div class='grid'><img class='top' src='images/stimuli/12.png' style='width:343.9644128113879px;height: 267px;'><div class='threeColumn'><img src='images/stimuli/73.png' style='width:343.9644128113879px;height: 267px;'><div class='num'>1</div></div><div class='threeColumn'><img src='images/stimuli/39.png' style='width:343.9644128113879px;height: 267px;'><div class='num'>2</div></div><div class='threeColumn'><img src='images/stimuli/78.png' style='width:343.9644128113879px;height: 267px;'><div class='num'>3</div></div></div>","49","html-keyboard-response","18","31686","0.0-3.0-1.7","temporalOrder1","10387","1","12","images/stimuli/73.png","images/stimuli/39.png","-13","2","images/stimuli/78.png","72","3","0","1","4","In the video you just watched, which one of the three objects at the bottom of the screen appeared <strong>immediately after</strong> this object?","8","m","0","across","3","2","3","0.3167259786476868"
"null","<div style=""font-size:60px;"">+</div>","null","html-keyboard-response","19","32191","0.0-3.0-0.8","fixation","","","","","","","","","","","","","","","","","","","","","",""
"535.0949999992736","<p>In the video you just watched, which one of the three objects at the bottom of the screen appeared <strong>immediately after</strong> this object?</p><div class='grid'><img class='top' src='images/stimuli/77.png' style='width:343.9644128113879px;height: 267px;'><div class='threeColumn'><img src='images/stimuli/31.png' style='width:343.9644128113879px;height: 267px;'><div class='num'>1</div></div><div class='threeColumn'><img src='images/stimuli/74.png' style='width:343.9644128113879px;height: 267px;'><div class='num'>2</div></div><div class='threeColumn'><img src='images/stimuli/22.png' style='width:343.9644128113879px;height: 267px;'><div class='num'>3</div></div></div>","49","html-keyboard-response","20","32729","0.0-3.0-1.8","temporalOrder1","10387","3","77","images/stimuli/22.png","images/stimuli/74.png","-6","2","images/stimuli/31.png","40","1","0","1","4","In the video you just watched, which one of the three objects at the bottom of the screen appeared <strong>immediately after</strong> this object?","6","m","0","across","3","3","3","0.3167259786476868"
"null","<div style=""font-size:60px;"">+</div>","null","html-keyboard-response","21","33235","0.0-3.0-0.9","fixation","","","","","","","","","","","","","","","","","","","","","",""
"897.16000000044","<p>In the video you just watched, which one of the three objects at the bottom of the screen appeared <strong>immediately after</strong> this object?</p><div class='grid'><img class='top' src='images/stimuli/35.png' style='width:343.9644128113879px;height: 267px;'><div class='threeColumn'><img src='images/stimuli/47.png' style='width:343.9644128113879px;height: 267px;'><div class='num'>1</div></div><div class='threeColumn'><img src='images/stimuli/7.png' style='width:343.9644128113879px;height: 267px;'><div class='num'>2</div></div><div class='threeColumn'><img src='images/stimuli/74.png' style='width:343.9644128113879px;height: 267px;'><div class='num'>3</div></div></div>","49","html-keyboard-response","22","34134","0.0-3.0-1.9","temporalOrder1","10387","3","35","images/stimuli/74.png","images/stimuli/47.png","-4","1","images/stimuli/7.png","77","2","0","1","4","In the video you just watched, which one of the three objects at the bottom of the screen appeared <strong>immediately after</strong> this object?","3","m","1","within","2","2","3","0.3167259786476868"
"null","<div style=""font-size:60px;"">+</div>","null","html-keyboard-response","23","34645","0.0-3.0-0.10","fixation","","","","","","","","","","","","","","","","","","","","","",""
"368.99000000266824","<p>In the video you just watched, which one of the three objects at the bottom of the screen appeared <strong>immediately after</strong> this object?</p><div class='grid'><img class='top' src='images/stimuli/14.png' style='width:343.9644128113879px;height: 267px;'><div class='threeColumn'><img src='images/stimuli/4.png' style='width:343.9644128113879px;height: 267px;'><div class='num'>1</div></div><div class='threeColumn'><img src='images/stimuli/19.png' style='width:343.9644128113879px;height: 267px;'><div class='num'>2</div></div><div class='threeColumn'><img src='images/stimuli/2.png' style='width:343.9644128113879px;height: 267px;'><div class='num'>3</div></div></div>","50","html-keyboard-response","24","35016","0.0-3.0-1.10","temporalOrder1","10387","3","14","images/stimuli/2.png","images/stimuli/4.png","-75","1","images/stimuli/19.png","4","2","0","1","4","In the video you just watched, which one of the three objects at the bottom of the screen appeared <strong>immediately after</strong> this object?","39","m","1","within","2","3","2","0.3167259786476868"
"null","<div style=""font-size:60px;"">+</div>","null","html-keyboard-response","25","35522","0.0-3.0-0.11","fixation","","","","","","","","","","","","","","","","","","","","","",""
"1623.8549999980023","<p>In the video you just watched, which one of the three objects at the bottom of the screen appeared <strong>immediately after</strong> this object?</p><div class='grid'><img class='top' src='images/stimuli/32.png' style='width:343.9644128113879px;height: 267px;'><div class='threeColumn'><img src='images/stimuli/66.png' style='width:343.9644128113879px;height: 267px;'><div class='num'>1</div></div><div class='threeColumn'><img src='images/stimuli/43.png' style='width:343.9644128113879px;height: 267px;'><div class='num'>2</div></div><div class='threeColumn'><img src='images/stimuli/44.png' style='width:343.9644128113879px;height: 267px;'><div class='num'>3</div></div></div>","49","html-keyboard-response","26","37148","0.0-3.0-1.11","temporalOrder1","10387","2","32","images/stimuli/43.png","images/stimuli/44.png","-15","3","images/stimuli/66.png","44","1","0","1","4","In the video you just watched, which one of the three objects at the bottom of the screen appeared <strong>immediately after</strong> this object?","11","m","0","across","3","2","3","0.3167259786476868"
"null","<div style=""font-size:60px;"">+</div>","null","html-keyboard-response","27","37653","0.0-3.0-0.12","fixation","","","","","","","","","","","","","","","","","","","","","",""
"5203.410000001895","<p>In the video you just watched, which one of the three objects at the bottom of the screen appeared <strong>immediately after</strong> this object?</p><div class='grid'><img class='top' src='images/stimuli/61.png' style='width:343.9644128113879px;height: 267px;'><div class='threeColumn'><img src='images/stimuli/31.png' style='width:343.9644128113879px;height: 267px;'><div class='num'>1</div></div><div class='threeColumn'><img src='images/stimuli/46.png' style='width:343.9644128113879px;height: 267px;'><div class='num'>2</div></div><div class='threeColumn'><img src='images/stimuli/71.png' style='width:343.9644128113879px;height: 267px;'><div class='num'>3</div></div></div>","49","html-keyboard-response","28","42859","0.0-3.0-1.12","temporalOrder1","10387","2","61","images/stimuli/46.png","images/stimuli/71.png","-12","3","images/stimuli/31.png","32","1","0","1","4","In the video you just watched, which one of the three objects at the bottom of the screen appeared <strong>immediately after</strong> this object?","10","m","0","across","3","3","3","0.3167259786476868"
"null","<div style=""font-size:60px;"">+</div>","null","html-keyboard-response","29","43362","0.0-3.0-0.13","fixation","","","","","","","","","","","","","","","","","","","","","",""
"2246.6649999987567","<p>In the video you just watched, which one of the three objects at the bottom of the screen appeared <strong>immediately after</strong> this object?</p><div class='grid'><img class='top' src='images/stimuli/62.png' style='width:343.9644128113879px;height: 267px;'><div class='threeColumn'><img src='images/stimuli/27.png' style='width:343.9644128113879px;height: 267px;'><div class='num'>1</div></div><div class='threeColumn'><img src='images/stimuli/2.png' style='width:343.9644128113879px;height: 267px;'><div class='num'>2</div></div><div class='threeColumn'><img src='images/stimuli/82.png' style='width:343.9644128113879px;height: 267px;'><div class='num'>3</div></div></div>","49","html-keyboard-response","30","45612","0.0-3.0-1.13","temporalOrder1","10387","3","62","images/stimuli/82.png","images/stimuli/27.png","-49","1","images/stimuli/2.png","14","2","0","1","4","In the video you just watched, which one of the three objects at the bottom of the screen appeared <strong>immediately after</strong> this object?","32","m","0","across","3","2","3","0.3167259786476868"
"null","<div style=""font-size:60px;"">+</div>","null","html-keyboard-response","31","46120","0.0-3.0-0.14","fixation","","","","","","","","","","","","","","","","","","","","","",""
"4620.259999996051","<p>In the video you just watched, which one of the three objects at the bottom of the screen appeared <strong>immediately after</strong> this object?</p><div class='grid'><img class='top' src='images/stimuli/65.png' style='width:343.9644128113879px;height: 267px;'><div class='threeColumn'><img src='images/stimuli/17.png' style='width:343.9644128113879px;height: 267px;'><div class='num'>1</div></div><div class='threeColumn'><img src='images/stimuli/46.png' style='width:343.9644128113879px;height: 267px;'><div class='num'>2</div></div><div class='threeColumn'><img src='images/stimuli/29.png' style='width:343.9644128113879px;height: 267px;'><div class='num'>3</div></div></div>","49","html-keyboard-response","32","50744","0.0-3.0-1.14","temporalOrder1","10387","1","65","images/stimuli/17.png","images/stimuli/46.png","-10","2","images/stimuli/29.png","10","3","0","1","4","In the video you just watched, which one of the three objects at the bottom of the screen appeared <strong>immediately after</strong> this object?","16","m","1","within","2","2","2","0.3167259786476868"
"null","<div style=""font-size:60px;"">+</div>","null","html-keyboard-response","33","51252","0.0-3.0-0.15","fixation","","","","","","","","","","","","","","","","","","","","","",""
"1819.9299999978393","<p>In the video you just watched, which one of the three objects at the bottom of the screen appeared <strong>immediately after</strong> this object?</p><div class='grid'><img class='top' src='images/stimuli/24.png' style='width:343.9644128113879px;height: 267px;'><div class='threeColumn'><img src='images/stimuli/8.png' style='width:343.9644128113879px;height: 267px;'><div class='num'>1</div></div><div class='threeColumn'><img src='images/stimuli/56.png' style='width:343.9644128113879px;height: 267px;'><div class='num'>2</div></div><div class='threeColumn'><img src='images/stimuli/10.png' style='width:343.9644128113879px;height: 267px;'><div class='num'>3</div></div></div>","49","html-keyboard-response","34","53075","0.0-3.0-1.15","temporalOrder1","10387","2","24","images/stimuli/56.png","images/stimuli/8.png","-29","1","images/stimuli/10.png","10","3","0","1","4","In the video you just watched, which one of the three objects at the bottom of the screen appeared <strong>immediately after</strong> this object?","24","m","0","across","3","2","3","0.3167259786476868"
"null","<div style=""font-size:60px;"">+</div>","null","html-keyboard-response","35","53579","0.0-3.0-0.16","fixation","","","","","","","","","","","","","","","","","","","","","",""
"2850.8249999940745","<p>In the video you just watched, which one of the three objects at the bottom of the screen appeared <strong>immediately after</strong> this object?</p><div class='grid'><img class='top' src='images/stimuli/16.png' style='width:343.9644128113879px;height: 267px;'><div class='threeColumn'><img src='images/stimuli/23.png' style='width:343.9644128113879px;height: 267px;'><div class='num'>1</div></div><div class='threeColumn'><img src='images/stimuli/13.png' style='width:343.9644128113879px;height: 267px;'><div class='num'>2</div></div><div class='threeColumn'><img src='images/stimuli/22.png' style='width:343.9644128113879px;height: 267px;'><div class='num'>3</div></div></div>","49","html-keyboard-response","36","56432","0.0-3.0-1.16","temporalOrder1","10387","1","16","images/stimuli/23.png","images/stimuli/22.png","-57","3","images/stimuli/13.png","10","2","0","1","4","In the video you just watched, which one of the three objects at the bottom of the screen appeared <strong>immediately after</strong> this object?","35","m","0","across","3","2","3","0.3167259786476868"
"null","<div style=""font-size:60px;"">+</div>","null","html-keyboard-response","37","56940","0.0-3.0-0.17","fixation","","","","","","","","","","","","","","","","","","","","","",""
"2028.2250000018394","<p>In the video you just watched, which one of the three objects at the bottom of the screen appeared <strong>immediately after</strong> this object?</p><div class='grid'><img class='top' src='images/stimuli/22.png' style='width:343.9644128113879px;height: 267px;'><div class='threeColumn'><img src='images/stimuli/4.png' style='width:343.9644128113879px;height: 267px;'><div class='num'>1</div></div><div class='threeColumn'><img src='images/stimuli/84.png' style='width:343.9644128113879px;height: 267px;'><div class='num'>2</div></div><div class='threeColumn'><img src='images/stimuli/48.png' style='width:343.9644128113879px;height: 267px;'><div class='num'>3</div></div></div>","49","html-keyboard-response","38","58971","0.0-3.0-1.17","temporalOrder1","10387","2","22","images/stimuli/84.png","images/stimuli/4.png","-11","1","images/stimuli/48.png","43","3","0","1","4","In the video you just watched, which one of the three objects at the bottom of the screen appeared <strong>immediately after</strong> this object?","7","m","1","within","2","3","3","0.3167259786476868"
"null","<div style=""font-size:60px;"">+</div>","null","html-keyboard-response","39","59478","0.0-3.0-0.18","fixation","","","","","","","","","","","","","","","","","","","","","",""
"5713.600000002771","<p>In the video you just watched, which one of the three objects at the bottom of the screen appeared <strong>immediately after</strong> this object?</p><div class='grid'><img class='top' src='images/stimuli/29.png' style='width:343.9644128113879px;height: 267px;'><div class='threeColumn'><img src='images/stimuli/27.png' style='width:343.9644128113879px;height: 267px;'><div class='num'>1</div></div><div class='threeColumn'><img src='images/stimuli/80.png' style='width:343.9644128113879px;height: 267px;'><div class='num'>2</div></div><div class='threeColumn'><img src='images/stimuli/34.png' style='width:343.9644128113879px;height: 267px;'><div class='num'>3</div></div></div>","49","html-keyboard-response","40","65194","0.0-3.0-1.18","temporalOrder1","10387","2","29","images/stimuli/80.png","images/stimuli/27.png","-26","1","images/stimuli/34.png","28","3","0","1","4","In the video you just watched, which one of the three objects at the bottom of the screen appeared <strong>immediately after</strong> this object?","21","m","1","within","2","2","2","0.3167259786476868"
"null","<div style=""font-size:60px;"">+</div>","null","html-keyboard-response","41","65702","0.0-3.0-0.19","fixation","","","","","","","","","","","","","","","","","","","","","",""
"4550.2550000019255","<p>In the video you just watched, which one of the three objects at the bottom of the screen appeared <strong>immediately after</strong> this object?</p><div class='grid'><img class='top' src='images/stimuli/17.png' style='width:343.9644128113879px;height: 267px;'><div class='threeColumn'><img src='images/stimuli/61.png' style='width:343.9644128113879px;height: 267px;'><div class='num'>1</div></div><div class='threeColumn'><img src='images/stimuli/85.png' style='width:343.9644128113879px;height: 267px;'><div class='num'>2</div></div><div class='threeColumn'><img src='images/stimuli/36.png' style='width:343.9644128113879px;height: 267px;'><div class='num'>3</div></div></div>","49","html-keyboard-response","42","70256","0.0-3.0-1.19","temporalOrder1","10387","3","17","images/stimuli/36.png","images/stimuli/61.png","-12","1","images/stimuli/85.png","13","2","0","1","4","In the video you just watched, which one of the three objects at the bottom of the screen appeared <strong>immediately after</strong> this object?","16","m","0","across","3","3","2","0.3167259786476868"
"null","<div style=""font-size:60px;"">+</div>","null","html-keyboard-response","43","70762","0.0-3.0-0.20","fixation","","","","","","","","","","","","","","","","","","","","","",""
"1412.369999998191","<p>In the video you just watched, which one of the three objects at the bottom of the screen appeared <strong>immediately after</strong> this object?</p><div class='grid'><img class='top' src='images/stimuli/46.png' style='width:343.9644128113879px;height: 267px;'><div class='threeColumn'><img src='images/stimuli/32.png' style='width:343.9644128113879px;height: 267px;'><div class='num'>1</div></div><div class='threeColumn'><img src='images/stimuli/86.png' style='width:343.9644128113879px;height: 267px;'><div class='num'>2</div></div><div class='threeColumn'><img src='images/stimuli/70.png' style='width:343.9644128113879px;height: 267px;'><div class='num'>3</div></div></div>","49","html-keyboard-response","44","72178","0.0-3.0-1.20","temporalOrder1","10387","1","46","images/stimuli/32.png","images/stimuli/70.png","-12","3","images/stimuli/86.png","9","2","0","1","4","In the video you just watched, which one of the three objects at the bottom of the screen appeared <strong>immediately after</strong> this object?","11","m","1","within","2","2","3","0.3167259786476868"
"null","<div style=""font-size:60px;"">+</div>","null","html-keyboard-response","45","72685","0.0-3.0-0.21","fixation","","","","","","","","","","","","","","","","","","","","","",""
"2815.0450000030105","<p>In the video you just watched, which one of the three objects at the bottom of the screen appeared <strong>immediately after</strong> this object?</p><div class='grid'><img class='top' src='images/stimuli/86.png' style='width:343.9644128113879px;height: 267px;'><div class='threeColumn'><img src='images/stimuli/65.png' style='width:343.9644128113879px;height: 267px;'><div class='num'>1</div></div><div class='threeColumn'><img src='images/stimuli/45.png' style='width:343.9644128113879px;height: 267px;'><div class='num'>2</div></div><div class='threeColumn'><img src='images/stimuli/84.png' style='width:343.9644128113879px;height: 267px;'><div class='num'>3</div></div></div>","49","html-keyboard-response","46","75503","0.0-3.0-1.21","temporalOrder1","10387","1","86","images/stimuli/65.png","images/stimuli/84.png","-16","3","images/stimuli/45.png","25","2","0","1","4","In the video you just watched, which one of the three objects at the bottom of the screen appeared <strong>immediately after</strong> this object?","15","m","0","across","3","3","2","0.3167259786476868"
"null","<div style=""font-size:60px;"">+</div>","null","html-keyboard-response","47","76014","0.0-3.0-0.22","fixation","","","","","","","","","","","","","","","","","","","","","",""
"970.6599999990431","<p>In the video you just watched, which one of the three objects at the bottom of the screen appeared <strong>immediately after</strong> this object?</p><div class='grid'><img class='top' src='images/stimuli/25.png' style='width:343.9644128113879px;height: 267px;'><div class='threeColumn'><img src='images/stimuli/62.png' style='width:343.9644128113879px;height: 267px;'><div class='num'>1</div></div><div class='threeColumn'><img src='images/stimuli/78.png' style='width:343.9644128113879px;height: 267px;'><div class='num'>2</div></div><div class='threeColumn'><img src='images/stimuli/71.png' style='width:343.9644128113879px;height: 267px;'><div class='num'>3</div></div></div>","51","html-keyboard-response","48","76987","0.0-3.0-1.22","temporalOrder1","10387","1","25","images/stimuli/62.png","images/stimuli/71.png","-55","3","images/stimuli/78.png","25","2","0","1","4","In the video you just watched, which one of the three objects at the bottom of the screen appeared <strong>immediately after</strong> this object?","32","m","1","within","2","3","3","0.3167259786476868"
"null","<div style=""font-size:60px;"">+</div>","null","html-keyboard-response","49","77495","0.0-3.0-0.23","fixation","","","","","","","","","","","","","","","","","","","","","",""
"986.6199999960372","<p>In the video you just watched, which one of the three objects at the bottom of the screen appeared <strong>immediately after</strong> this object?</p><div class='grid'><img class='top' src='images/stimuli/19.png' style='width:343.9644128113879px;height: 267px;'><div class='threeColumn'><img src='images/stimuli/14.png' style='width:343.9644128113879px;height: 267px;'><div class='num'>1</div></div><div class='threeColumn'><img src='images/stimuli/6.png' style='width:343.9644128113879px;height: 267px;'><div class='num'>2</div></div><div class='threeColumn'><img src='images/stimuli/7.png' style='width:343.9644128113879px;height: 267px;'><div class='num'>3</div></div></div>","51","html-keyboard-response","50","78485","0.0-3.0-1.23","temporalOrder1","10387","3","19","images/stimuli/7.png","images/stimuli/14.png","-4","1","images/stimuli/6.png","4","2","0","1","4","In the video you just watched, which one of the three objects at the bottom of the screen appeared <strong>immediately after</strong> this object?","41","m","1","within","2","2","2","0.3167259786476868"
"null","<div style=""font-size:60px;"">+</div>","null","html-keyboard-response","51","78995","0.0-3.0-0.24","fixation","","","","","","","","","","","","","","","","","","","","","",""
"1022.7349999986473","<p>In the video you just watched, which one of the three objects at the bottom of the screen appeared <strong>immediately after</strong> this object?</p><div class='grid'><img class='top' src='images/stimuli/21.png' style='width:343.9644128113879px;height: 267px;'><div class='threeColumn'><img src='images/stimuli/2.png' style='width:343.9644128113879px;height: 267px;'><div class='num'>1</div></div><div class='threeColumn'><img src='images/stimuli/37.png' style='width:343.9644128113879px;height: 267px;'><div class='num'>2</div></div><div class='threeColumn'><img src='images/stimuli/75.png' style='width:343.9644128113879px;height: 267px;'><div class='num'>3</div></div></div>","49","html-keyboard-response","52","80021","0.0-3.0-1.24","temporalOrder1","10387","3","21","images/stimuli/75.png","images/stimuli/37.png","-39","2","images/stimuli/2.png","4","1","0","1","4","In the video you just watched, which one of the three objects at the bottom of the screen appeared <strong>immediately after</strong> this object?","37","m","0","across","3","2","3","0.3167259786476868"
"null","<div style=""font-size:60px;"">+</div>","null","html-keyboard-response","53","80530","0.0-3.0-0.25","fixation","","","","","","","","","","","","","","","","","","","","","",""
"801.3300000020536","<p>In the video you just watched, which one of the three objects at the bottom of the screen appeared <strong>immediately after</strong> this object?</p><div class='grid'><img class='top' src='images/stimuli/85.png' style='width:343.9644128113879px;height: 267px;'><div class='threeColumn'><img src='images/stimuli/64.png' style='width:343.9644128113879px;height: 267px;'><div class='num'>1</div></div><div class='threeColumn'><img src='images/stimuli/2.png' style='width:343.9644128113879px;height: 267px;'><div class='num'>2</div></div><div class='threeColumn'><img src='images/stimuli/28.png' style='width:343.9644128113879px;height: 267px;'><div class='num'>3</div></div></div>","51","html-keyboard-response","54","81334","0.0-3.0-1.25","temporalOrder1","10387","3","85","images/stimuli/28.png","images/stimuli/64.png","-20","1","images/stimuli/2.png","33","2","0","1","4","In the video you just watched, which one of the three objects at the bottom of the screen appeared <strong>immediately after</strong> this object?","23","m","1","within","2","2","3","0.3167259786476868"
"null","<div style=""font-size:60px;"">+</div>","null","html-keyboard-response","55","81842","0.0-3.0-0.26","fixation","","","","","","","","","","","","","","","","","","","","","",""
"1143.7900000019","<p>In the video you just watched, which one of the three objects at the bottom of the screen appeared <strong>immediately after</strong> this object?</p><div class='grid'><img class='top' src='images/stimuli/10.png' style='width:343.9644128113879px;height: 267px;'><div class='threeColumn'><img src='images/stimuli/72.png' style='width:343.9644128113879px;height: 267px;'><div class='num'>1</div></div><div class='threeColumn'><img src='images/stimuli/40.png' style='width:343.9644128113879px;height: 267px;'><div class='num'>2</div></div><div class='threeColumn'><img src='images/stimuli/21.png' style='width:343.9644128113879px;height: 267px;'><div class='num'>3</div></div></div>","49","html-keyboard-response","56","82989","0.0-3.0-1.26","temporalOrder1","10387","2","10","images/stimuli/40.png","images/stimuli/72.png","-29","1","images/stimuli/21.png","16","3","0","1","4","In the video you just watched, which one of the three objects at the bottom of the screen appeared <strong>immediately after</strong> this object?","29","m","0","across","3","2","3","0.3167259786476868"
"null","<div style=""font-size:60px;"">+</div>","null","html-keyboard-response","57","83499","0.0-3.0-0.27","fixation","","","","","","","","","","","","","","","","","","","","","",""
"856.0399999987567","<p>In the video you just watched, which one of the three objects at the bottom of the screen appeared <strong>immediately after</strong> this object?</p><div class='grid'><img class='top' src='images/stimuli/73.png' style='width:343.9644128113879px;height: 267px;'><div class='threeColumn'><img src='images/stimuli/47.png' style='width:343.9644128113879px;height: 267px;'><div class='num'>1</div></div><div class='threeColumn'><img src='images/stimuli/0.png' style='width:343.9644128113879px;height: 267px;'><div class='num'>2</div></div><div class='threeColumn'><img src='images/stimuli/52.png' style='width:343.9644128113879px;height: 267px;'><div class='num'>3</div></div></div>","49","html-keyboard-response","58","84358","0.0-3.0-1.27","temporalOrder1","10387","2","73","images/stimuli/0.png","images/stimuli/47.png","-16","1","images/stimuli/52.png","10","3","0","1","4","In the video you just watched, which one of the three objects at the bottom of the screen appeared <strong>immediately after</strong> this object?","9","m","1","within","2","2","2","0.3167259786476868"
"null","<div style=""font-size:60px;"">+</div>","null","html-keyboard-response","59","84868","0.0-3.0-0.28","fixation","","","","","","","","","","","","","","","","","","","","","",""
"1607.624999996915","<p>In the video you just watched, which one of the three objects at the bottom of the screen appeared <strong>immediately after</strong> this object?</p><div class='grid'><img class='top' src='images/stimuli/7.png' style='width:343.9644128113879px;height: 267px;'><div class='threeColumn'><img src='images/stimuli/38.png' style='width:343.9644128113879px;height: 267px;'><div class='num'>1</div></div><div class='threeColumn'><img src='images/stimuli/9.png' style='width:343.9644128113879px;height: 267px;'><div class='num'>2</div></div><div class='threeColumn'><img src='images/stimuli/29.png' style='width:343.9644128113879px;height: 267px;'><div class='num'>3</div></div></div>","51","html-keyboard-response","60","86477","0.0-3.0-1.28","temporalOrder1","10387","2","7","images/stimuli/9.png","images/stimuli/29.png","-41","3","images/stimuli/38.png","4","1","0","1","4","In the video you just watched, which one of the three objects at the bottom of the screen appeared <strong>immediately after</strong> this object?","41","m","0","across","3","2","3","0.3167259786476868"
"null","<div style=""font-size:60px;"">+</div>","null","html-keyboard-response","61","86985","0.0-3.0-0.29","fixation","","","","","","","","","","","","","","","","","","","","","",""
"1918.7500000043656","<p>In the video you just watched, which one of the three objects at the bottom of the screen appeared <strong>immediately after</strong> this object?</p><div class='grid'><img class='top' src='images/stimuli/26.png' style='width:343.9644128113879px;height: 267px;'><div class='threeColumn'><img src='images/stimuli/56.png' style='width:343.9644128113879px;height: 267px;'><div class='num'>1</div></div><div class='threeColumn'><img src='images/stimuli/87.png' style='width:343.9644128113879px;height: 267px;'><div class='num'>2</div></div><div class='threeColumn'><img src='images/stimuli/79.png' style='width:343.9644128113879px;height: 267px;'><div class='num'>3</div></div></div>","50","html-keyboard-response","62","88907","0.0-3.0-1.29","temporalOrder1","10387","2","26","images/stimuli/87.png","images/stimuli/79.png","-3","3","images/stimuli/56.png","6","1","0","1","4","In the video you just watched, which one of the three objects at the bottom of the screen appeared <strong>immediately after</strong> this object?","22","m","1","within","2","3","2","0.3167259786476868"
"null","<div style=""font-size:60px;"">+</div>","null","html-keyboard-response","63","89409","0.0-3.0-0.30","fixation","","","","","","","","","","","","","","","","","","","","","",""
"1414.7699999957695","<p>In the video you just watched, which one of the three objects at the bottom of the screen appeared <strong>immediately after</strong> this object?</p><div class='grid'><img class='top' src='images/stimuli/76.png' style='width:343.9644128113879px;height: 267px;'><div class='threeColumn'><img src='images/stimuli/75.png' style='width:343.9644128113879px;height: 267px;'><div class='num'>1</div></div><div class='threeColumn'><img src='images/stimuli/51.png' style='width:343.9644128113879px;height: 267px;'><div class='num'>2</div></div><div class='threeColumn'><img src='images/stimuli/46.png' style='width:343.9644128113879px;height: 267px;'><div class='num'>3</div></div></div>","49","html-keyboard-response","64","90826","0.0-3.0-1.30","temporalOrder1","10387","2","76","images/stimuli/51.png","images/stimuli/46.png","-17","3","images/stimuli/75.png","37","1","0","1","4","In the video you just watched, which one of the three objects at the bottom of the screen appeared <strong>immediately after</strong> this object?","19","m","0","across","3","2","2","0.3167259786476868"
"null","<div style=""font-size:60px;"">+</div>","null","html-keyboard-response","65","91335","0.0-3.0-0.31","fixation","","","","","","","","","","","","","","","","","","","","","",""
"2422.404999997525","<p>In the video you just watched, which one of the three objects at the bottom of the screen appeared <strong>immediately after</strong> this object?</p><div class='grid'><img class='top' src='images/stimuli/31.png' style='width:343.9644128113879px;height: 267px;'><div class='threeColumn'><img src='images/stimuli/1.png' style='width:343.9644128113879px;height: 267px;'><div class='num'>1</div></div><div class='threeColumn'><img src='images/stimuli/3.png' style='width:343.9644128113879px;height: 267px;'><div class='num'>2</div></div><div class='threeColumn'><img src='images/stimuli/15.png' style='width:343.9644128113879px;height: 267px;'><div class='num'>3</div></div></div>","49","html-keyboard-response","66","93758","0.0-3.0-1.31","temporalOrder1","10387","1","31","images/stimuli/1.png","images/stimuli/15.png","-15","3","images/stimuli/3.png","16","2","0","1","4","In the video you just watched, which one of the three objects at the bottom of the screen appeared <strong>immediately after</strong> this object?","26","m","0","across","3","2","3","0.3167259786476868"
"null","<div style=""font-size:60px;"">+</div>","null","html-keyboard-response","67","94267","0.0-3.0-0.32","fixation","","","","","","","","","","","","","","","","","","","","","",""
"3469.2999999970198","<p>In the video you just watched, which one of the three objects at the bottom of the screen appeared <strong>immediately after</strong> this object?</p><div class='grid'><img class='top' src='images/stimuli/80.png' style='width:343.9644128113879px;height: 267px;'><div class='threeColumn'><img src='images/stimuli/65.png' style='width:343.9644128113879px;height: 267px;'><div class='num'>1</div></div><div class='threeColumn'><img src='images/stimuli/26.png' style='width:343.9644128113879px;height: 267px;'><div class='num'>2</div></div><div class='threeColumn'><img src='images/stimuli/40.png' style='width:343.9644128113879px;height: 267px;'><div class='num'>3</div></div></div>","51","html-keyboard-response","68","97739","0.0-3.0-1.32","temporalOrder1","10387","2","80","images/stimuli/26.png","images/stimuli/65.png","-11","1","images/stimuli/40.png","17","3","0","1","4","In the video you just watched, which one of the three objects at the bottom of the screen appeared <strong>immediately after</strong> this object?","21","m","0","across","3","2","2","0.3167259786476868"
"null","<div style=""font-size:60px;"">+</div>","null","html-keyboard-response","69","98248","0.0-3.0-0.33","fixation","","","","","","","","","","","","","","","","","","","","","",""
"1416.4100000052713","<p>In the video you just watched, which one of the three objects at the bottom of the screen appeared <strong>immediately after</strong> this object?</p><div class='grid'><img class='top' src='images/stimuli/33.png' style='width:343.9644128113879px;height: 267px;'><div class='threeColumn'><img src='images/stimuli/78.png' style='width:343.9644128113879px;height: 267px;'><div class='num'>1</div></div><div class='threeColumn'><img src='images/stimuli/30.png' style='width:343.9644128113879px;height: 267px;'><div class='num'>2</div></div><div class='threeColumn'><img src='images/stimuli/24.png' style='width:343.9644128113879px;height: 267px;'><div class='num'>3</div></div></div>","49","html-keyboard-response","70","99668","0.0-3.0-1.33","temporalOrder1","10387","3","33","images/stimuli/24.png","images/stimuli/30.png","-19","2","images/stimuli/78.png","41","1","0","1","4","In the video you just watched, which one of the three objects at the bottom of the screen appeared <strong>immediately after</strong> this object?","24","m","1","within","2","3","3","0.3167259786476868"
"null","<div style=""font-size:60px;"">+</div>","null","html-keyboard-response","71","100176","0.0-3.0-0.34","fixation","","","","","","","","","","","","","","","","","","","","","",""
"927.0350000006147","<p>In the video you just watched, which one of the three objects at the bottom of the screen appeared <strong>immediately after</strong> this object?</p><div class='grid'><img class='top' src='images/stimuli/70.png' style='width:343.9644128113879px;height: 267px;'><div class='threeColumn'><img src='images/stimuli/69.png' style='width:343.9644128113879px;height: 267px;'><div class='num'>1</div></div><div class='threeColumn'><img src='images/stimuli/39.png' style='width:343.9644128113879px;height: 267px;'><div class='num'>2</div></div><div class='threeColumn'><img src='images/stimuli/10.png' style='width:343.9644128113879px;height: 267px;'><div class='num'>3</div></div></div>","51","html-keyboard-response","72","101105","0.0-3.0-1.34","temporalOrder1","10387","1","70","images/stimuli/69.png","images/stimuli/39.png","-6","2","images/stimuli/10.png","49","3","0","1","4","In the video you just watched, which one of the three objects at the bottom of the screen appeared <strong>immediately after</strong> this object?","5","m","1","within","2","2","3","0.3167259786476868"
"null","<div style=""font-size:60px;"">+</div>","null","html-keyboard-response","73","101609","0.0-3.0-0.35","fixation","","","","","","","","","","","","","","","","","","","","","",""
"3671.1450000002515","<p>In the video you just watched, which one of the three objects at the bottom of the screen appeared <strong>immediately after</strong> this object?</p><div class='grid'><img class='top' src='images/stimuli/41.png' style='width:343.9644128113879px;height: 267px;'><div class='threeColumn'><img src='images/stimuli/25.png' style='width:343.9644128113879px;height: 267px;'><div class='num'>1</div></div><div class='threeColumn'><img src='images/stimuli/78.png' style='width:343.9644128113879px;height: 267px;'><div class='num'>2</div></div><div class='threeColumn'><img src='images/stimuli/63.png' style='width:343.9644128113879px;height: 267px;'><div class='num'>3</div></div></div>","51","html-keyboard-response","74","105283","0.0-3.0-1.35","temporalOrder1","10387","1","41","images/stimuli/25.png","images/stimuli/63.png","-26","3","images/stimuli/78.png","26","2","0","1","4","In the video you just watched, which one of the three objects at the bottom of the screen appeared <strong>immediately after</strong> this object?","31","m","0","across","3","3","3","0.3167259786476868"
"null","<div style=""font-size:60px;"">+</div>","null","html-keyboard-response","75","105797","0.0-3.0-0.36","fixation","","","","","","","","","","","","","","","","","","","","","",""
"1920.7749999986845","<p>In the video you just watched, which one of the three objects at the bottom of the screen appeared <strong>immediately after</strong> this object?</p><div class='grid'><img class='top' src='images/stimuli/51.png' style='width:343.9644128113879px;height: 267px;'><div class='threeColumn'><img src='images/stimuli/72.png' style='width:343.9644128113879px;height: 267px;'><div class='num'>1</div></div><div class='threeColumn'><img src='images/stimuli/41.png' style='width:343.9644128113879px;height: 267px;'><div class='num'>2</div></div><div class='threeColumn'><img src='images/stimuli/79.png' style='width:343.9644128113879px;height: 267px;'><div class='num'>3</div></div></div>","51","html-keyboard-response","76","107722","0.0-3.0-1.36","temporalOrder1","10387","3","51","images/stimuli/79.png","images/stimuli/72.png","-10","1","images/stimuli/41.png","23","2","0","1","4","In the video you just watched, which one of the three objects at the bottom of the screen appeared <strong>immediately after</strong> this object?","20","m","1","within","2","2","3","0.3167259786476868"
"null","<div style=""font-size:60px;"">+</div>","null","html-keyboard-response","77","108228","0.0-3.0-0.37","fixation","","","","","","","","","","","","","","","","","","","","","",""
"2295.9150000024238","<p>In the video you just watched, which one of the three objects at the bottom of the screen appeared <strong>immediately after</strong> this object?</p><div class='grid'><img class='top' src='images/stimuli/40.png' style='width:343.9644128113879px;height: 267px;'><div class='threeColumn'><img src='images/stimuli/55.png' style='width:343.9644128113879px;height: 267px;'><div class='num'>1</div></div><div class='threeColumn'><img src='images/stimuli/74.png' style='width:343.9644128113879px;height: 267px;'><div class='num'>2</div></div><div class='threeColumn'><img src='images/stimuli/18.png' style='width:343.9644128113879px;height: 267px;'><div class='num'>3</div></div></div>","51","html-keyboard-response","78","110526","0.0-3.0-1.37","temporalOrder1","10387","3","40","images/stimuli/18.png","images/stimuli/74.png","-53","2","images/stimuli/55.png","14","1","0","1","4","In the video you just watched, which one of the three objects at the bottom of the screen appeared <strong>immediately after</strong> this object?","30","m","1","within","2","3","2","0.3167259786476868"
"null","<div style=""font-size:60px;"">+</div>","null","html-keyboard-response","79","111038","0.0-3.0-0.38","fixation","","","","","","","","","","","","","","","","","","","","","",""
"1221.4500000045518","<p>In the video you just watched, which one of the three objects at the bottom of the screen appeared <strong>immediately after</strong> this object?</p><div class='grid'><img class='top' src='images/stimuli/27.png' style='width:343.9644128113879px;height: 267px;'><div class='threeColumn'><img src='images/stimuli/12.png' style='width:343.9644128113879px;height: 267px;'><div class='num'>1</div></div><div class='threeColumn'><img src='images/stimuli/44.png' style='width:343.9644128113879px;height: 267px;'><div class='num'>2</div></div><div class='threeColumn'><img src='images/stimuli/80.png' style='width:343.9644128113879px;height: 267px;'><div class='num'>3</div></div></div>","50","html-keyboard-response","80","112262","0.0-3.0-1.38","temporalOrder1","10387","1","27","images/stimuli/12.png","images/stimuli/44.png","-8","2","images/stimuli/80.png","27","3","0","1","4","In the video you just watched, which one of the three objects at the bottom of the screen appeared <strong>immediately after</strong> this object?","8","m","1","within","2","2","3","0.3167259786476868"
"null","<div style=""font-size:60px;"">+</div>","null","html-keyboard-response","81","112767","0.0-3.0-0.39","fixation","","","","","","","","","","","","","","","","","","","","","",""
"1315.744999999879","<p>In the video you just watched, which one of the three objects at the bottom of the screen appeared <strong>immediately after</strong> this object?</p><div class='grid'><img class='top' src='images/stimuli/13.png' style='width:343.9644128113879px;height: 267px;'><div class='threeColumn'><img src='images/stimuli/19.png' style='width:343.9644128113879px;height: 267px;'><div class='num'>1</div></div><div class='threeColumn'><img src='images/stimuli/9.png' style='width:343.9644128113879px;height: 267px;'><div class='num'>2</div></div><div class='threeColumn'><img src='images/stimuli/5.png' style='width:343.9644128113879px;height: 267px;'><div class='num'>3</div></div></div>","51","html-keyboard-response","82","114086","0.0-3.0-1.39","temporalOrder1","10387","1","13","images/stimuli/19.png","images/stimuli/5.png","-46","3","images/stimuli/9.png","3","2","0","1","4","In the video you just watched, which one of the three objects at the bottom of the screen appeared <strong>immediately after</strong> this object?","40","m","0","across","3","3","2","0.3167259786476868"
"null","<div style=""font-size:60px;"">+</div>","null","html-keyboard-response","83","114594","0.0-3.0-0.40","fixation","","","","","","","","","","","","","","","","","","","","","",""
"1722.2150000015972","<p>In the video you just watched, which one of the three objects at the bottom of the screen appeared <strong>immediately after</strong> this object?</p><div class='grid'><img class='top' src='images/stimuli/15.png' style='width:343.9644128113879px;height: 267px;'><div class='threeColumn'><img src='images/stimuli/66.png' style='width:343.9644128113879px;height: 267px;'><div class='num'>1</div></div><div class='threeColumn'><img src='images/stimuli/76.png' style='width:343.9644128113879px;height: 267px;'><div class='num'>2</div></div><div class='threeColumn'><img src='images/stimuli/52.png' style='width:343.9644128113879px;height: 267px;'><div class='num'>3</div></div></div>","51","html-keyboard-response","84","116319","0.0-3.0-1.40","temporalOrder1","10387","2","15","images/stimuli/76.png","images/stimuli/52.png","-10","3","images/stimuli/66.png","29","1","0","1","4","In the video you just watched, which one of the three objects at the bottom of the screen appeared <strong>immediately after</strong> this object?","19","m","1","within","2","2","3","0.3167259786476868"
"null","<div style=""font-size:60px;"">+</div>","null","html-keyboard-response","85","116829","0.0-3.0-0.41","fixation","","","","","","","","","","","","","","","","","","","","","",""
"1450.830000001588","<p>In the video you just watched, which one of the three objects at the bottom of the screen appeared <strong>immediately after</strong> this object?</p><div class='grid'><img class='top' src='images/stimuli/87.png' style='width:343.9644128113879px;height: 267px;'><div class='threeColumn'><img src='images/stimuli/36.png' style='width:343.9644128113879px;height: 267px;'><div class='num'>1</div></div><div class='threeColumn'><img src='images/stimuli/59.png' style='width:343.9644128113879px;height: 267px;'><div class='num'>2</div></div><div class='threeColumn'><img src='images/stimuli/85.png' style='width:343.9644128113879px;height: 267px;'><div class='num'>3</div></div></div>","50","html-keyboard-response","86","118283","0.0-3.0-1.41","temporalOrder1","10387","3","87","images/stimuli/85.png","images/stimuli/36.png","-11","1","images/stimuli/59.png","10","2","0","1","4","In the video you just watched, which one of the three objects at the bottom of the screen appeared <strong>immediately after</strong> this object?","22","m","0","across","3","2","3","0.3167259786476868"
"null","<div style=""font-size:60px;"">+</div>","null","html-keyboard-response","87","118793","0.0-3.0-0.42","fixation","","","","","","","","","","","","","","","","","","","","","",""
"1130.6600000025355","<p>In the video you just watched, which one of the three objects at the bottom of the screen appeared <strong>immediately after</strong> this object?</p><div class='grid'><img class='top' src='images/stimuli/43.png' style='width:343.9644128113879px;height: 267px;'><div class='threeColumn'><img src='images/stimuli/27.png' style='width:343.9644128113879px;height: 267px;'><div class='num'>1</div></div><div class='threeColumn'><img src='images/stimuli/19.png' style='width:343.9644128113879px;height: 267px;'><div class='num'>2</div></div><div class='threeColumn'><img src='images/stimuli/83.png' style='width:343.9644128113879px;height: 267px;'><div class='num'>3</div></div></div>","50","html-keyboard-response","88","119926","0.0-3.0-1.42","temporalOrder1","10387","3","43","images/stimuli/83.png","images/stimuli/27.png","-8","1","images/stimuli/19.png","58","2","0","1","4","In the video you just watched, which one of the three objects at the bottom of the screen appeared <strong>immediately after</strong> this object?","12","m","1","within","2","2","2","0.3167259786476868"
"null","<div style=""font-size:60px;"">+</div>","null","html-keyboard-response","89","120434","0.0-3.0-0.43","fixation","","","","","","","","","","","","","","","","","","","","","",""
"1012.1949999956996","<p>In the video you just watched, which one of the three objects at the bottom of the screen appeared <strong>immediately after</strong> this object?</p><div class='grid'><img class='top' src='images/stimuli/36.png' style='width:343.9644128113879px;height: 267px;'><div class='threeColumn'><img src='images/stimuli/5.png' style='width:343.9644128113879px;height: 267px;'><div class='num'>1</div></div><div class='threeColumn'><img src='images/stimuli/61.png' style='width:343.9644128113879px;height: 267px;'><div class='num'>2</div></div><div class='threeColumn'><img src='images/stimuli/57.png' style='width:343.9644128113879px;height: 267px;'><div class='num'>3</div></div></div>","50","html-keyboard-response","90","121450","0.0-3.0-1.43","temporalOrder1","10387","1","36","images/stimuli/5.png","images/stimuli/61.png","-13","2","images/stimuli/57.png","39","3","0","1","4","In the video you just watched, which one of the three objects at the bottom of the screen appeared <strong>immediately after</strong> this object?","17","m","1","within","2","3","3","0.3167259786476868"
"null","<div style=""font-size:60px;"">+</div>","null","html-keyboard-response","91","121956","0.0-3.0-0.44","fixation","","","","","","","","","","","","","","","","","","","","","",""
"1679.6400000021094","<p>In the video you just watched, which one of the three objects at the bottom of the screen appeared <strong>immediately after</strong> this object?</p><div class='grid'><img class='top' src='images/stimuli/28.png' style='width:343.9644128113879px;height: 267px;'><div class='threeColumn'><img src='images/stimuli/33.png' style='width:343.9644128113879px;height: 267px;'><div class='num'>1</div></div><div class='threeColumn'><img src='images/stimuli/25.png' style='width:343.9644128113879px;height: 267px;'><div class='num'>2</div></div><div class='threeColumn'><img src='images/stimuli/80.png' style='width:343.9644128113879px;height: 267px;'><div class='num'>3</div></div></div>","51","html-keyboard-response","92","123638","0.0-3.0-1.44","temporalOrder1","10387","1","28","images/stimuli/33.png","images/stimuli/80.png","-4","3","images/stimuli/25.png","17","2","0","1","4","In the video you just watched, which one of the three objects at the bottom of the screen appeared <strong>immediately after</strong> this object?","23","m","0","across","3","3","2","0.3167259786476868"
"null","<div style=""font-size:60px;"">+</div>","null","html-keyboard-response","93","124147","0.0-3.0-0.45","fixation","","","","","","","","","","","","","","","","","","","","","",""
"1351.0650000025635","<p>In the video you just watched, which one of the three objects at the bottom of the screen appeared <strong>immediately after</strong> this object?</p><div class='grid'><img class='top' src='images/stimuli/3.png' style='width:343.9644128113879px;height: 267px;'><div class='threeColumn'><img src='images/stimuli/75.png' style='width:343.9644128113879px;height: 267px;'><div class='num'>1</div></div><div class='threeColumn'><img src='images/stimuli/34.png' style='width:343.9644128113879px;height: 267px;'><div class='num'>2</div></div><div class='threeColumn'><img src='images/stimuli/39.png' style='width:343.9644128113879px;height: 267px;'><div class='num'>3</div></div></div>","49","html-keyboard-response","94","125501","0.0-3.0-1.45","temporalOrder1","10387","2","3","images/stimuli/34.png","images/stimuli/39.png","-65","3","images/stimuli/75.png","7","1","0","1","4","In the video you just watched, which one of the three objects at the bottom of the screen appeared <strong>immediately after</strong> this object?","34","m","0","across","3","2","2","0.3167259786476868"
"null","<div style=""font-size:60px;"">+</div>","null","html-keyboard-response","95","126007","0.0-3.0-0.46","fixation","","","","","","","","","","","","","","","","","","","","","",""
"2320.9399999977904","<p>In the video you just watched, which one of the three objects at the bottom of the screen appeared <strong>immediately after</strong> this object?</p><div class='grid'><img class='top' src='images/stimuli/69.png' style='width:343.9644128113879px;height: 267px;'><div class='threeColumn'><img src='images/stimuli/58.png' style='width:343.9644128113879px;height: 267px;'><div class='num'>1</div></div><div class='threeColumn'><img src='images/stimuli/40.png' style='width:343.9644128113879px;height: 267px;'><div class='num'>2</div></div><div class='threeColumn'><img src='images/stimuli/81.png' style='width:343.9644128113879px;height: 267px;'><div class='num'>3</div></div></div>","51","html-keyboard-response","96","128330","0.0-3.0-1.46","temporalOrder1","10387","3","69","images/stimuli/81.png","images/stimuli/58.png","-6","1","images/stimuli/40.png","49","2","0","1","4","In the video you just watched, which one of the three objects at the bottom of the screen appeared <strong>immediately after</strong> this object?","5","m","0","across","3","3","2","0.3167259786476868"
"null","<div style=""font-size:60px;"">+</div>","null","html-keyboard-response","97","128841","0.0-3.0-0.47","fixation","","","","","","","","","","","","","","","","","","","","","",""
"918.1699999971897","<p>In the video you just watched, which one of the three objects at the bottom of the screen appeared <strong>immediately after</strong> this object?</p><div class='grid'><img class='top' src='images/stimuli/64.png' style='width:343.9644128113879px;height: 267px;'><div class='threeColumn'><img src='images/stimuli/61.png' style='width:343.9644128113879px;height: 267px;'><div class='num'>1</div></div><div class='threeColumn'><img src='images/stimuli/6.png' style='width:343.9644128113879px;height: 267px;'><div class='num'>2</div></div><div class='threeColumn'><img src='images/stimuli/53.png' style='width:343.9644128113879px;height: 267px;'><div class='num'>3</div></div></div>","49","html-keyboard-response","98","129762","0.0-3.0-1.47","temporalOrder1","10387","3","64","images/stimuli/53.png","images/stimuli/61.png","-5","1","images/stimuli/6.png","60","2","0","1","4","In the video you just watched, which one of the three objects at the bottom of the screen appeared <strong>immediately after</strong> this object?","13","m","1","within","2","3","2","0.3167259786476868"
"null","<div style=""font-size:60px;"">+</div>","null","html-keyboard-response","99","130275","0.0-3.0-0.48","fixation","","","","","","","","","","","","","","","","","","","","","",""
"1313.3900000029826","<p>In the video you just watched, which one of the three objects at the bottom of the screen appeared <strong>immediately after</strong> this object?</p><div class='grid'><img class='top' src='images/stimuli/60.png' style='width:343.9644128113879px;height: 267px;'><div class='threeColumn'><img src='images/stimuli/67.png' style='width:343.9644128113879px;height: 267px;'><div class='num'>1</div></div><div class='threeColumn'><img src='images/stimuli/71.png' style='width:343.9644128113879px;height: 267px;'><div class='num'>2</div></div><div class='threeColumn'><img src='images/stimuli/41.png' style='width:343.9644128113879px;height: 267px;'><div class='num'>3</div></div></div>","50","html-keyboard-response","100","131591","0.0-3.0-1.48","temporalOrder1","10387","3","60","images/stimuli/41.png","images/stimuli/71.png","-53","2","images/stimuli/67.png","6","1","0","1","4","In the video you just watched, which one of the three objects at the bottom of the screen appeared <strong>immediately after</strong> this object?","31","m","1","within","2","3","2","0.3167259786476868"
"null","<div style=""font-size:60px;"">+</div>","null","html-keyboard-response","101","132095","0.0-3.0-0.49","fixation","","","","","","","","","","","","","","","","","","","","","",""
"976.8949999997858","<p>In the video you just watched, which one of the three objects at the bottom of the screen appeared <strong>immediately after</strong> this object?</p><div class='grid'><img class='top' src='images/stimuli/63.png' style='width:343.9644128113879px;height: 267px;'><div class='threeColumn'><img src='images/stimuli/52.png' style='width:343.9644128113879px;height: 267px;'><div class='num'>1</div></div><div class='threeColumn'><img src='images/stimuli/29.png' style='width:343.9644128113879px;height: 267px;'><div class='num'>2</div></div><div class='threeColumn'><img src='images/stimuli/15.png' style='width:343.9644128113879px;height: 267px;'><div class='num'>3</div></div></div>","50","html-keyboard-response","102","133075","0.0-3.0-1.49","temporalOrder1","10387","3","63","images/stimuli/15.png","images/stimuli/52.png","-9","1","images/stimuli/29.png","5","2","0","1","4","In the video you just watched, which one of the three objects at the bottom of the screen appeared <strong>immediately after</strong> this object?","18","m","0","across","3","2","2","0.3167259786476868"
"null","<div style=""font-size:60px;"">+</div>","null","html-keyboard-response","103","133583","0.0-3.0-0.50","fixation","","","","","","","","","","","","","","","","","","","","","",""
"9798.64500000258","<p>In the video you just watched, which one of the three objects at the bottom of the screen appeared <strong>immediately after</strong> this object?</p><div class='grid'><img class='top' src='images/stimuli/50.png' style='width:343.9644128113879px;height: 267px;'><div class='threeColumn'><img src='images/stimuli/49.png' style='width:343.9644128113879px;height: 267px;'><div class='num'>1</div></div><div class='threeColumn'><img src='images/stimuli/12.png' style='width:343.9644128113879px;height: 267px;'><div class='num'>2</div></div><div class='threeColumn'><img src='images/stimuli/2.png' style='width:343.9644128113879px;height: 267px;'><div class='num'>3</div></div></div>","49","html-keyboard-response","104","143383","0.0-3.0-1.50","temporalOrder1","10387","1","50","images/stimuli/49.png","images/stimuli/12.png","-34","2","images/stimuli/2.png","28","3","0","1","4","In the video you just watched, which one of the three objects at the bottom of the screen appeared <strong>immediately after</strong> this object?","25","m","0","across","3","3","3","0.3167259786476868"
"null","<div style=""font-size:60px;"">+</div>","null","html-keyboard-response","105","143891","0.0-3.0-0.51","fixation","","","","","","","","","","","","","","","","","","","","","",""
"5858.684999999241","<p>In the video you just watched, which one of the three objects at the bottom of the screen appeared <strong>immediately after</strong> this object?</p><div class='grid'><img class='top' src='images/stimuli/74.png' style='width:343.9644128113879px;height: 267px;'><div class='threeColumn'><img src='images/stimuli/44.png' style='width:343.9644128113879px;height: 267px;'><div class='num'>1</div></div><div class='threeColumn'><img src='images/stimuli/4.png' style='width:343.9644128113879px;height: 267px;'><div class='num'>2</div></div><div class='threeColumn'><img src='images/stimuli/46.png' style='width:343.9644128113879px;height: 267px;'><div class='num'>3</div></div></div>","49","html-keyboard-response","106","149754","0.0-3.0-1.51","temporalOrder1","10387","1","74","images/stimuli/44.png","images/stimuli/4.png","-4","2","images/stimuli/46.png","15","3","0","1","4","In the video you just watched, which one of the three objects at the bottom of the screen appeared <strong>immediately after</strong> this object?","3","m","0","across","3","3","2","0.3167259786476868"
"null","<div style=""font-size:60px;"">+</div>","null","html-keyboard-response","107","150261","0.0-3.0-0.52","fixation","","","","","","","","","","","","","","","","","","","","","",""
"2204.4649999952526","<p>In the video you just watched, which one of the three objects at the bottom of the screen appeared <strong>immediately after</strong> this object?</p><div class='grid'><img class='top' src='images/stimuli/2.png' style='width:343.9644128113879px;height: 267px;'><div class='threeColumn'><img src='images/stimuli/68.png' style='width:343.9644128113879px;height: 267px;'><div class='num'>1</div></div><div class='threeColumn'><img src='images/stimuli/9.png' style='width:343.9644128113879px;height: 267px;'><div class='num'>2</div></div><div class='threeColumn'><img src='images/stimuli/87.png' style='width:343.9644128113879px;height: 267px;'><div class='num'>3</div></div></div>","49","html-keyboard-response","108","152470","0.0-3.0-1.52","temporalOrder1","10387","1","2","images/stimuli/68.png","images/stimuli/87.png","-34","3","images/stimuli/9.png","5","2","0","1","4","In the video you just watched, which one of the three objects at the bottom of the screen appeared <strong>immediately after</strong> this object?","39","m","0","across","3","3","2","0.3167259786476868"
"null","<div style=""font-size:60px;"">+</div>","null","html-keyboard-response","109","152977","0.0-3.0-0.53","fixation","","","","","","","","","","","","","","","","","","","","","",""
"649.6049999987008","<p>In the video you just watched, which one of the three objects at the bottom of the screen appeared <strong>immediately after</strong> this object?</p><div class='grid'><img class='top' src='images/stimuli/81.png' style='width:343.9644128113879px;height: 267px;'><div class='threeColumn'><img src='images/stimuli/71.png' style='width:343.9644128113879px;height: 267px;'><div class='num'>1</div></div><div class='threeColumn'><img src='images/stimuli/77.png' style='width:343.9644128113879px;height: 267px;'><div class='num'>2</div></div><div class='threeColumn'><img src='images/stimuli/15.png' style='width:343.9644128113879px;height: 267px;'><div class='num'>3</div></div></div>","49","html-keyboard-response","110","153628","0.0-3.0-1.53","temporalOrder1","10387","2","81","images/stimuli/77.png","images/stimuli/71.png","-3","1","images/stimuli/15.png","26","3","0","1","4","In the video you just watched, which one of the three objects at the bottom of the screen appeared <strong>immediately after</strong> this object?","6","m","1","within","2","3","2","0.3167259786476868"
"null","<div style=""font-size:60px;"">+</div>","null","html-keyboard-response","111","154136","0.0-3.0-0.54","fixation","","","","","","","","","","","","","","","","","","","","","",""
"742.3100000014529","<p>In the video you just watched, which one of the three objects at the bottom of the screen appeared <strong>immediately after</strong> this object?</p><div class='grid'><img class='top' src='images/stimuli/44.png' style='width:343.9644128113879px;height: 267px;'><div class='threeColumn'><img src='images/stimuli/71.png' style='width:343.9644128113879px;height: 267px;'><div class='num'>1</div></div><div class='threeColumn'><img src='images/stimuli/4.png' style='width:343.9644128113879px;height: 267px;'><div class='num'>2</div></div><div class='threeColumn'><img src='images/stimuli/17.png' style='width:343.9644128113879px;height: 267px;'><div class='num'>3</div></div></div>","49","html-keyboard-response","112","154881","0.0-3.0-1.54","temporalOrder1","10387","1","44","images/stimuli/71.png","images/stimuli/4.png","-5","2","images/stimuli/17.png","25","3","0","1","4","In the video you just watched, which one of the three objects at the bottom of the screen appeared <strong>immediately after</strong> this object?","4","m","1","within","2","3","3","0.3167259786476868"
"null","<div style=""font-size:60px;"">+</div>","null","html-keyboard-response","113","155389","0.0-3.0-0.55","fixation","","","","","","","","","","","","","","","","","","","","","",""
"592.6600000020699","<p>In the video you just watched, which one of the three objects at the bottom of the screen appeared <strong>immediately after</strong> this object?</p><div class='grid'><img class='top' src='images/stimuli/53.png' style='width:343.9644128113879px;height: 267px;'><div class='threeColumn'><img src='images/stimuli/52.png' style='width:343.9644128113879px;height: 267px;'><div class='num'>1</div></div><div class='threeColumn'><img src='images/stimuli/14.png' style='width:343.9644128113879px;height: 267px;'><div class='num'>2</div></div><div class='threeColumn'><img src='images/stimuli/74.png' style='width:343.9644128113879px;height: 267px;'><div class='num'>3</div></div></div>","49","html-keyboard-response","114","155984","0.0-3.0-1.55","temporalOrder1","10387","1","53","images/stimuli/52.png","images/stimuli/74.png","-20","3","images/stimuli/14.png","51","2","0","1","4","In the video you just watched, which one of the three objects at the bottom of the screen appeared <strong>immediately after</strong> this object?","13","m","0","across","3","3","2","0.3167259786476868"
"null","<div style=""font-size:60px;"">+</div>","null","html-keyboard-response","115","156494","0.0-3.0-0.56","fixation","","","","","","","","","","","","","","","","","","","","","",""
"421.1749999958556","<p>In the video you just watched, which one of the three objects at the bottom of the screen appeared <strong>immediately after</strong> this object?</p><div class='grid'><img class='top' src='images/stimuli/0.png' style='width:343.9644128113879px;height: 267px;'><div class='threeColumn'><img src='images/stimuli/33.png' style='width:343.9644128113879px;height: 267px;'><div class='num'>1</div></div><div class='threeColumn'><img src='images/stimuli/69.png' style='width:343.9644128113879px;height: 267px;'><div class='num'>2</div></div><div class='threeColumn'><img src='images/stimuli/8.png' style='width:343.9644128113879px;height: 267px;'><div class='num'>3</div></div></div>","49","html-keyboard-response","116","156918","0.0-3.0-1.56","temporalOrder1","10387","3","0","images/stimuli/8.png","images/stimuli/69.png","-8","2","images/stimuli/33.png","29","1","0","1","4","In the video you just watched, which one of the three objects at the bottom of the screen appeared <strong>immediately after</strong> this object?","9","m","0","across","3","3","2","0.3167259786476868"
"null","<div style=""font-size:60px;"">+</div>","null","html-keyboard-response","117","157421","0.0-3.0-0.57","fixation","","","","","","","","","","","","","","","","","","","","","",""
"510.9050000028219","<p>In the video you just watched, which one of the three objects at the bottom of the screen appeared <strong>immediately after</strong> this object?</p><div class='grid'><img class='top' src='images/stimuli/66.png' style='width:343.9644128113879px;height: 267px;'><div class='threeColumn'><img src='images/stimuli/16.png' style='width:343.9644128113879px;height: 267px;'><div class='num'>1</div></div><div class='threeColumn'><img src='images/stimuli/60.png' style='width:343.9644128113879px;height: 267px;'><div class='num'>2</div></div><div class='threeColumn'><img src='images/stimuli/67.png' style='width:343.9644128113879px;height: 267px;'><div class='num'>3</div></div></div>","51","html-keyboard-response","118","157935","0.0-3.0-1.57","temporalOrder1","10387","3","66","images/stimuli/67.png","images/stimuli/60.png","-5","2","images/stimuli/16.png","4","1","0","1","4","In the video you just watched, which one of the three objects at the bottom of the screen appeared <strong>immediately after</strong> this object?","33","m","0","across","3","2","3","0.3167259786476868"
"null","<div style=""font-size:60px;"">+</div>","null","html-keyboard-response","119","158443","0.0-3.0-0.58","fixation","","","","","","","","","","","","","","","","","","","","","",""
"1995.1599999985774","<p>In the video you just watched, which one of the three objects at the bottom of the screen appeared <strong>immediately after</strong> this object?</p><div class='grid'><img class='top' src='images/stimuli/56.png' style='width:343.9644128113879px;height: 267px;'><div class='threeColumn'><img src='images/stimuli/50.png' style='width:343.9644128113879px;height: 267px;'><div class='num'>1</div></div><div class='threeColumn'><img src='images/stimuli/28.png' style='width:343.9644128113879px;height: 267px;'><div class='num'>2</div></div><div class='threeColumn'><img src='images/stimuli/40.png' style='width:343.9644128113879px;height: 267px;'><div class='num'>3</div></div></div>","50","html-keyboard-response","120","160440","0.0-3.0-1.58","temporalOrder1","10387","1","56","images/stimuli/50.png","images/stimuli/28.png","-3","2","images/stimuli/40.png","10","3","0","1","4","In the video you just watched, which one of the three objects at the bottom of the screen appeared <strong>immediately after</strong> this object?","25","m","1","within","2","3","2","0.3167259786476868"
"null","<div style=""font-size:60px;"">+</div>","null","html-keyboard-response","121","160947","0.0-3.0-0.59","fixation","","","","","","","","","","","","","","","","","","","","","",""
"752.0000000004075","<p>In the video you just watched, which one of the three objects at the bottom of the screen appeared <strong>immediately after</strong> this object?</p><div class='grid'><img class='top' src='images/stimuli/23.png' style='width:343.9644128113879px;height: 267px;'><div class='threeColumn'><img src='images/stimuli/37.png' style='width:343.9644128113879px;height: 267px;'><div class='num'>1</div></div><div class='threeColumn'><img src='images/stimuli/78.png' style='width:343.9644128113879px;height: 267px;'><div class='num'>2</div></div><div class='threeColumn'><img src='images/stimuli/57.png' style='width:343.9644128113879px;height: 267px;'><div class='num'>3</div></div></div>","49","html-keyboard-response","122","161702","0.0-3.0-1.59","temporalOrder1","10387","3","23","images/stimuli/57.png","images/stimuli/37.png","-36","1","images/stimuli/78.png","17","2","0","1","4","In the video you just watched, which one of the three objects at the bottom of the screen appeared <strong>immediately after</strong> this object?","36","m","1","within","2","2","3","0.3167259786476868"
"null","<div style=""font-size:60px;"">+</div>","null","html-keyboard-response","123","162215","0.0-3.0-0.60","fixation","","","","","","","","","","","","","","","","","","","","","",""
"713.515000003099","<p>In the video you just watched, which one of the three objects at the bottom of the screen appeared <strong>immediately after</strong> this object?</p><div class='grid'><img class='top' src='images/stimuli/18.png' style='width:343.9644128113879px;height: 267px;'><div class='threeColumn'><img src='images/stimuli/60.png' style='width:343.9644128113879px;height: 267px;'><div class='num'>1</div></div><div class='threeColumn'><img src='images/stimuli/68.png' style='width:343.9644128113879px;height: 267px;'><div class='num'>2</div></div><div class='threeColumn'><img src='images/stimuli/1.png' style='width:343.9644128113879px;height: 267px;'><div class='num'>3</div></div></div>","49","html-keyboard-response","124","162932","0.0-3.0-1.60","temporalOrder1","10387","1","18","images/stimuli/60.png","images/stimuli/1.png","-7","3","images/stimuli/68.png","19","2","0","1","4","In the video you just watched, which one of the three objects at the bottom of the screen appeared <strong>immediately after</strong> this object?","30","m","0","across","3","2","2","0.3167259786476868"
"null","<div style=""font-size:60px;"">+</div>","null","html-keyboard-response","125","163439","0.0-3.0-0.61","fixation","","","","","","","","","","","","","","","","","","","","","",""
"783.2449999987148","<p>In the video you just watched, which one of the three objects at the bottom of the screen appeared <strong>immediately after</strong> this object?</p><div class='grid'><img class='top' src='images/stimuli/75.png' style='width:343.9644128113879px;height: 267px;'><div class='threeColumn'><img src='images/stimuli/3.png' style='width:343.9644128113879px;height: 267px;'><div class='num'>1</div></div><div class='threeColumn'><img src='images/stimuli/78.png' style='width:343.9644128113879px;height: 267px;'><div class='num'>2</div></div><div class='threeColumn'><img src='images/stimuli/54.png' style='width:343.9644128113879px;height: 267px;'><div class='num'>3</div></div></div>","49","html-keyboard-response","126","164224","0.0-3.0-1.61","temporalOrder1","10387","3","75","images/stimuli/54.png","images/stimuli/3.png","-7","1","images/stimuli/78.png","13","2","0","1","4","In the video you just watched, which one of the three objects at the bottom of the screen appeared <strong>immediately after</strong> this object?","38","m","1","within","2","3","3","0.3167259786476868"
"null","<div style=""font-size:60px;"">+</div>","null","html-keyboard-response","127","164733","0.0-3.0-0.62","fixation","","","","","","","","","","","","","","","","","","","","","",""
"2456.655000001774","<p>In the video you just watched, which one of the three objects at the bottom of the screen appeared <strong>immediately after</strong> this object?</p><div class='grid'><img class='top' src='images/stimuli/52.png' style='width:343.9644128113879px;height: 267px;'><div class='threeColumn'><img src='images/stimuli/83.png' style='width:343.9644128113879px;height: 267px;'><div class='num'>1</div></div><div class='threeColumn'><img src='images/stimuli/18.png' style='width:343.9644128113879px;height: 267px;'><div class='num'>2</div></div><div class='threeColumn'><img src='images/stimuli/30.png' style='width:343.9644128113879px;height: 267px;'><div class='num'>3</div></div></div>","49","html-keyboard-response","128","167191","0.0-3.0-1.62","temporalOrder1","10387","3","52","images/stimuli/30.png","images/stimuli/83.png","-3","1","images/stimuli/18.png","33","2","0","1","4","In the video you just watched, which one of the three objects at the bottom of the screen appeared <strong>immediately after</strong> this object?","14","m","1","within","2","3","3","0.3167259786476868"
"null","<div style=""font-size:60px;"">+</div>","null","html-keyboard-response","129","167702","0.0-3.0-0.63","fixation","","","","","","","","","","","","","","","","","","","","","",""
"764.2149999956018","<p>In the video you just watched, which one of the three objects at the bottom of the screen appeared <strong>immediately after</strong> this object?</p><div class='grid'><img class='top' src='images/stimuli/67.png' style='width:343.9644128113879px;height: 267px;'><div class='threeColumn'><img src='images/stimuli/3.png' style='width:343.9644128113879px;height: 267px;'><div class='num'>1</div></div><div class='threeColumn'><img src='images/stimuli/57.png' style='width:343.9644128113879px;height: 267px;'><div class='num'>2</div></div><div class='threeColumn'><img src='images/stimuli/46.png' style='width:343.9644128113879px;height: 267px;'><div class='num'>3</div></div></div>","49","html-keyboard-response","130","168470","0.0-3.0-1.63","temporalOrder1","10387","1","67","images/stimuli/3.png","images/stimuli/46.png","-46","3","images/stimuli/57.png","5","2","0","1","4","In the video you just watched, which one of the three objects at the bottom of the screen appeared <strong>immediately after</strong> this object?","34","m","1","within","2","2","3","0.3167259786476868"
"null","<div style=""font-size:60px;"">+</div>","null","html-keyboard-response","131","168981","0.0-3.0-0.64","fixation","","","","","","","","","","","","","","","","","","","","","",""
"17984.33500000101","<p>In the video you just watched, which one of the three objects at the bottom of the screen appeared <strong>immediately after</strong> this object?</p><div class='grid'><img class='top' src='images/stimuli/49.png' style='width:343.9644128113879px;height: 267px;'><div class='threeColumn'><img src='images/stimuli/41.png' style='width:343.9644128113879px;height: 267px;'><div class='num'>1</div></div><div class='threeColumn'><img src='images/stimuli/31.png' style='width:343.9644128113879px;height: 267px;'><div class='num'>2</div></div><div class='threeColumn'><img src='images/stimuli/76.png' style='width:343.9644128113879px;height: 267px;'><div class='num'>3</div></div></div>","49","html-keyboard-response","132","186967","0.0-3.0-1.64","temporalOrder1","10387","2","49","images/stimuli/31.png","images/stimuli/76.png","-13","3","images/stimuli/41.png","11","1","0","1","4","In the video you just watched, which one of the three objects at the bottom of the screen appeared <strong>immediately after</strong> this object?","26","m","1","within","2","3","3","0.3167259786476868"
"null","<div style=""font-size:60px;"">+</div>","null","html-keyboard-response","133","187482","0.0-3.0-0.65","fixation","","","","","","","","","","","","","","","","","","","","","",""
"214.85000000393484","<p>In the video you just watched, which one of the three objects at the bottom of the screen appeared <strong>immediately after</strong> this object?</p><div class='grid'><img class='top' src='images/stimuli/37.png' style='width:343.9644128113879px;height: 267px;'><div class='threeColumn'><img src='images/stimuli/53.png' style='width:343.9644128113879px;height: 267px;'><div class='num'>1</div></div><div class='threeColumn'><img src='images/stimuli/67.png' style='width:343.9644128113879px;height: 267px;'><div class='num'>2</div></div><div class='threeColumn'><img src='images/stimuli/63.png' style='width:343.9644128113879px;height: 267px;'><div class='num'>3</div></div></div>","49","html-keyboard-response","134","187700","0.0-3.0-1.65","temporalOrder1","10387","3","37","images/stimuli/63.png","images/stimuli/53.png","-9","1","images/stimuli/67.png","32","2","0","1","4","In the video you just watched, which one of the three objects at the bottom of the screen appeared <strong>immediately after</strong> this object?","18","m","1","within","2","3","2","0.3167259786476868"
"null","<div style=""font-size:60px;"">+</div>","null","html-keyboard-response","135","188209","0.0-3.0-0.66","fixation","","","","","","","","","","","","","","","","","","","","","",""
"30.834999997750856","<p>In the video you just watched, which one of the three objects at the bottom of the screen appeared <strong>immediately after</strong> this object?</p><div class='grid'><img class='top' src='images/stimuli/34.png' style='width:343.9644128113879px;height: 267px;'><div class='threeColumn'><img src='images/stimuli/79.png' style='width:343.9644128113879px;height: 267px;'><div class='num'>1</div></div><div class='threeColumn'><img src='images/stimuli/16.png' style='width:343.9644128113879px;height: 267px;'><div class='num'>2</div></div><div class='threeColumn'><img src='images/stimuli/78.png' style='width:343.9644128113879px;height: 267px;'><div class='num'>3</div></div></div>","51","html-keyboard-response","136","188243","0.0-3.0-1.66","temporalOrder1","10387","2","34","images/stimuli/16.png","images/stimuli/79.png","-29","1","images/stimuli/78.png","19","3","0","1","4","In the video you just watched, which one of the three objects at the bottom of the screen appeared <strong>immediately after</strong> this object?","35","m","1","within","2","3","3","0.3167259786476868"
"null","<div style=""font-size:60px;"">+</div>","null","html-keyboard-response","137","188752","0.0-3.0-0.67","fixation","","","","","","","","","","","","","","","","","","","","","",""
"62.750000004598405","<p>In the video you just watched, which one of the three objects at the bottom of the screen appeared <strong>immediately after</strong> this object?</p><div class='grid'><img class='top' src='images/stimuli/11.png' style='width:343.9644128113879px;height: 267px;'><div class='threeColumn'><img src='images/stimuli/78.png' style='width:343.9644128113879px;height: 267px;'><div class='num'>1</div></div><div class='threeColumn'><img src='images/stimuli/30.png' style='width:343.9644128113879px;height: 267px;'><div class='num'>2</div></div><div class='threeColumn'><img src='images/stimuli/6.png' style='width:343.9644128113879px;height: 267px;'><div class='num'>3</div></div></div>","51","html-keyboard-response","138","188818","0.0-3.0-1.67","temporalOrder1","10387","3","11","images/stimuli/6.png","images/stimuli/30.png","-56","2","images/stimuli/78.png","4","1","0","1","4","In the video you just watched, which one of the three objects at the bottom of the screen appeared <strong>immediately after</strong> this object?","42","m","0","across","3","3","3","0.3167259786476868"
"null","<div style=""font-size:60px;"">+</div>","null","html-keyboard-response","139","189327","0.0-3.0-0.68","fixation","","","","","","","","","","","","","","","","","","","","","",""
"32.15999999520136","<p>In the video you just watched, which one of the three objects at the bottom of the screen appeared <strong>immediately after</strong> this object?</p><div class='grid'><img class='top' src='images/stimuli/9.png' style='width:343.9644128113879px;height: 267px;'><div class='threeColumn'><img src='images/stimuli/11.png' style='width:343.9644128113879px;height: 267px;'><div class='num'>1</div></div><div class='threeColumn'><img src='images/stimuli/78.png' style='width:343.9644128113879px;height: 267px;'><div class='num'>2</div></div><div class='threeColumn'><img src='images/stimuli/8.png' style='width:343.9644128113879px;height: 267px;'><div class='num'>3</div></div></div>","50","html-keyboard-response","140","189362","0.0-3.0-1.68","temporalOrder1","10387","1","9","images/stimuli/11.png","images/stimuli/8.png","-64","3","images/stimuli/78.png","5","2","0","1","4","In the video you just watched, which one of the three objects at the bottom of the screen appeared <strong>immediately after</strong> this object?","42","m","1","within","2","2","3","0.3167259786476868"
"null","<div style=""font-size:60px;"">+</div>","null","html-keyboard-response","141","189870","0.0-3.0-0.69","fixation","","","","","","","","","","","","","","","","","","","","","",""
"95.82000000227708","<p>In the video you just watched, which one of the three objects at the bottom of the screen appeared <strong>immediately after</strong> this object?</p><div class='grid'><img class='top' src='images/stimuli/54.png' style='width:343.9644128113879px;height: 267px;'><div class='threeColumn'><img src='images/stimuli/42.png' style='width:343.9644128113879px;height: 267px;'><div class='num'>1</div></div><div class='threeColumn'><img src='images/stimuli/50.png' style='width:343.9644128113879px;height: 267px;'><div class='num'>2</div></div><div class='threeColumn'><img src='images/stimuli/14.png' style='width:343.9644128113879px;height: 267px;'><div class='num'>3</div></div></div>","49","html-keyboard-response","142","189968","0.0-3.0-1.69","temporalOrder1","10387","3","54","images/stimuli/14.png","images/stimuli/50.png","-26","2","images/stimuli/42.png","11","1","0","1","4","In the video you just watched, which one of the three objects at the bottom of the screen appeared <strong>immediately after</strong> this object?","38","m","0","across","3","3","2","0.3167259786476868"
"null","<div style=""font-size:60px;"">+</div>","null","html-keyboard-response","143","190477","0.0-3.0-0.70","fixation","","","","","","","","","","","","","","","","","","","","","",""
"123.87499999749707","<p>In the video you just watched, which one of the three objects at the bottom of the screen appeared <strong>immediately after</strong> this object?</p><div class='grid'><img class='top' src='images/stimuli/8.png' style='width:343.9644128113879px;height: 267px;'><div class='threeColumn'><img src='images/stimuli/74.png' style='width:343.9644128113879px;height: 267px;'><div class='num'>1</div></div><div class='threeColumn'><img src='images/stimuli/5.png' style='width:343.9644128113879px;height: 267px;'><div class='num'>2</div></div><div class='threeColumn'><img src='images/stimuli/61.png' style='width:343.9644128113879px;height: 267px;'><div class='num'>3</div></div></div>","49","html-keyboard-response","144","190603","0.0-3.0-1.70","temporalOrder1","10387","3","8","images/stimuli/61.png","images/stimuli/74.png","-13","1","images/stimuli/5.png","15","2","0","1","4","In the video you just watched, which one of the three objects at the bottom of the screen appeared <strong>immediately after</strong> this object?","10","m","1","within","2","3","3","0.3167259786476868"
"null","<div style=""font-size:60px;"">+</div>","null","html-keyboard-response","145","191112","0.0-3.0-0.71","fixation","","","","","","","","","","","","","","","","","","","","","",""
"112.07999999896856","<p>In the video you just watched, which one of the three objects at the bottom of the screen appeared <strong>immediately after</strong> this object?</p><div class='grid'><img class='top' src='images/stimuli/83.png' style='width:343.9644128113879px;height: 267px;'><div class='threeColumn'><img src='images/stimuli/66.png' style='width:343.9644128113879px;height: 267px;'><div class='num'>1</div></div><div class='threeColumn'><img src='images/stimuli/74.png' style='width:343.9644128113879px;height: 267px;'><div class='num'>2</div></div><div class='threeColumn'><img src='images/stimuli/64.png' style='width:343.9644128113879px;height: 267px;'><div class='num'>3</div></div></div>","49","html-keyboard-response","146","191225","0.0-3.0-1.71","temporalOrder1","10387","3","83","images/stimuli/64.png","images/stimuli/74.png","-18","2","images/stimuli/66.png","42","1","0","1","4","In the video you just watched, which one of the three objects at the bottom of the screen appeared <strong>immediately after</strong> this object?","12","m","0","across","3","3","3","0.3167259786476868"
"null","<div style=""font-size:60px;"">+</div>","null","html-keyboard-response","147","191731","0.0-3.0-0.72","fixation","","","","","","","","","","","","","","","","","","","","","",""
"126.8500000005588","<p>In the video you just watched, which one of the three objects at the bottom of the screen appeared <strong>immediately after</strong> this object?</p><div class='grid'><img class='top' src='images/stimuli/48.png' style='width:343.9644128113879px;height: 267px;'><div class='threeColumn'><img src='images/stimuli/55.png' style='width:343.9644128113879px;height: 267px;'><div class='num'>1</div></div><div class='threeColumn'><img src='images/stimuli/20.png' style='width:343.9644128113879px;height: 267px;'><div class='num'>2</div></div><div class='threeColumn'><img src='images/stimuli/8.png' style='width:343.9644128113879px;height: 267px;'><div class='num'>3</div></div></div>","49","html-keyboard-response","148","191859","0.0-3.0-1.72","temporalOrder1","10387","2","48","images/stimuli/20.png","images/stimuli/8.png","-37","3","images/stimuli/55.png","17","1","0","1","4","In the video you just watched, which one of the three objects at the bottom of the screen appeared <strong>immediately after</strong> this object?","28","m","0","across","3","2","2","0.3167259786476868"
"null","<div style=""font-size:60px;"">+</div>","null","html-keyboard-response","149","192362","0.0-3.0-0.73","fixation","","","","","","","","","","","","","","","","","","","","","",""
"497.6249999963329","<p>In the video you just watched, which one of the three objects at the bottom of the screen appeared <strong>immediately after</strong> this object?</p><div class='grid'><img class='top' src='images/stimuli/30.png' style='width:343.9644128113879px;height: 267px;'><div class='threeColumn'><img src='images/stimuli/71.png' style='width:343.9644128113879px;height: 267px;'><div class='num'>1</div></div><div class='threeColumn'><img src='images/stimuli/23.png' style='width:343.9644128113879px;height: 267px;'><div class='num'>2</div></div><div class='threeColumn'><img src='images/stimuli/72.png' style='width:343.9644128113879px;height: 267px;'><div class='num'>3</div></div></div>","50","html-keyboard-response","150","192863","0.0-3.0-1.73","temporalOrder1","10387","3","30","images/stimuli/72.png","images/stimuli/71.png","-20","1","images/stimuli/23.png","43","2","0","1","4","In the video you just watched, which one of the three objects at the bottom of the screen appeared <strong>immediately after</strong> this object?","14","m","0","across","3","3","2","0.3167259786476868"
"null","<div style=""font-size:60px;"">+</div>","null","html-keyboard-response","151","193369","0.0-3.0-0.74","fixation","","","","","","","","","","","","","","","","","","","","","",""
