"rt","stimulus","key_press","trial_type","trial_index","time_elapsed","internal_node_id","success","test_part","correct_response","probe"
"12379","<p>Thank you for participating in this experiment.</p><p>At first, you will watch a video, in which you see a series of objects in a series of rooms.</p><p>Try to remember that sequence and try to remember the rooms an object was in. </p><p>To start the experiment, please watch the following video: <a href='https://youtu.be/PKNqyqvctJg'>https://youtu.be/PKNqyqvctJg</a><p>Please enable the full screen mode while watching the video and use the highest resolution.</p><p>Press <strong>space</strong> to continue after watching the video.</p>","32","html-keyboard-response","0","12383","0.0-0.0","","","",""
"","","","fullscreen","1","23122","0.0-1.0","true","","",""
"49356","<p>After you have watched the video, you will now complete a memory task.</p><br><br><p>On each trial, you need to answer two questions. For both questions you have to</p><p>to choose the correct image from three alternatives by pressing 1, 2 or 3 from top of the keyboard.</p><p>For the first question, you need to decide which object was either before or after the object presented</p><p>at the top. This is relative to the sequence of objects you saw in the video. For the second question, </p><p>you need to decide in which room the object was. In order to do this, you need to base</p><p>this on the <strong>wall colour</strong> and the <strong>carpet</strong>.</p><br><p>Press <strong>space</strong> to begin.</p>","32","html-keyboard-response","2","72482","0.0-2.0","","","",""
"null","<div style=""font-size:60px;"">+</div>","null","html-keyboard-response","3","74988","0.0-3.0-0.0","","fixation","",""
"6400","<img src= stimuli/temporalOrder/9.png width = '386.6666666666667' height = '243.18658280922432'><p>What came after this object?</p><img src= stimuli/temporalOrder/42.png width = '386.6666666666667' height = '243.18658280922432' hspace='5'><img src= stimuli/temporalOrder/11.png width = '386.6666666666667' height = '243.18658280922432' hspace='5'><img src= stimuli/temporalOrder/7.png width = '386.6666666666667' height = '243.18658280922432' hspace='5'><p>Press 1, 2 or 3.</p>","50","html-keyboard-response","4","81393","0.0-3.0-1.0","","temporalOrder","2","9"
"null","","null","html-keyboard-response","5","81894","0.0-3.0-2.0","","blank","",""
"4416","<img src= stimuli/temporalOrder/9.png width = '386.6666666666667' height = '243.18658280922432'><p>In which room was the object?</p><img src= stimuli/contextMemory/15.png width = '386.6666666666667' height = '243.18658280922432' hspace='5'><img src= stimuli/contextMemory/26.png width = '386.6666666666667' height = '243.18658280922432' hspace='5'><img src= stimuli/contextMemory/42.png width = '386.6666666666667' height = '243.18658280922432' hspace='5'><p>Press 1, 2 or 3.</p>","50","html-keyboard-response","6","86313","0.0-3.0-3.0","","contextMemory","3","9"
"null","<div style=""font-size:60px;"">+</div>","null","html-keyboard-response","7","86822","0.0-3.0-0.1","","fixation","",""
"9794","<img src= stimuli/temporalOrder/54.png width = '386.6666666666667' height = '243.18658280922432'><p>What came after this object?</p><img src= stimuli/temporalOrder/81.png width = '386.6666666666667' height = '243.18658280922432' hspace='5'><img src= stimuli/temporalOrder/58.png width = '386.6666666666667' height = '243.18658280922432' hspace='5'><img src= stimuli/temporalOrder/14.png width = '386.6666666666667' height = '243.18658280922432' hspace='5'><p>Press 1, 2 or 3.</p>","51","html-keyboard-response","8","96618","0.0-3.0-1.1","","temporalOrder","3","54"
"null","","null","html-keyboard-response","9","97129","0.0-3.0-2.1","","blank","",""
"6924","<img src= stimuli/temporalOrder/54.png width = '386.6666666666667' height = '243.18658280922432'><p>In which room was the object?</p><img src= stimuli/contextMemory/5.png width = '386.6666666666667' height = '243.18658280922432' hspace='5'><img src= stimuli/contextMemory/38.png width = '386.6666666666667' height = '243.18658280922432' hspace='5'><img src= stimuli/contextMemory/37.png width = '386.6666666666667' height = '243.18658280922432' hspace='5'><p>Press 1, 2 or 3.</p>","50","html-keyboard-response","10","104055","0.0-3.0-3.1","","contextMemory","2","54"
"null","<div style=""font-size:60px;"">+</div>","null","html-keyboard-response","11","104566","0.0-3.0-0.2","","fixation","",""
"4345","<img src= stimuli/temporalOrder/78.png width = '386.6666666666667' height = '243.18658280922432'><p>What came before this object?</p><img src= stimuli/temporalOrder/61.png width = '386.6666666666667' height = '243.18658280922432' hspace='5'><img src= stimuli/temporalOrder/42.png width = '386.6666666666667' height = '243.18658280922432' hspace='5'><img src= stimuli/temporalOrder/29.png width = '386.6666666666667' height = '243.18658280922432' hspace='5'><p>Press 1, 2 or 3.</p>","50","html-keyboard-response","12","108913","0.0-3.0-1.2","","temporalOrder","2","78"
"null","","null","html-keyboard-response","13","109414","0.0-3.0-2.2","","blank","",""
"6694","<img src= stimuli/temporalOrder/78.png width = '386.6666666666667' height = '243.18658280922432'><p>In which room was the object?</p><img src= stimuli/contextMemory/44.png width = '386.6666666666667' height = '243.18658280922432' hspace='5'><img src= stimuli/contextMemory/43.png width = '386.6666666666667' height = '243.18658280922432' hspace='5'><img src= stimuli/contextMemory/3.png width = '386.6666666666667' height = '243.18658280922432' hspace='5'><p>Press 1, 2 or 3.</p>","49","html-keyboard-response","14","116113","0.0-3.0-3.2","","contextMemory","1","78"
"null","<div style=""font-size:60px;"">+</div>","null","html-keyboard-response","15","116613","0.0-3.0-0.3","","fixation","",""
"14806","<img src= stimuli/temporalOrder/23.png width = '386.6666666666667' height = '243.18658280922432'><p>What came before this object?</p><img src= stimuli/temporalOrder/16.png width = '386.6666666666667' height = '243.18658280922432' hspace='5'><img src= stimuli/temporalOrder/47.png width = '386.6666666666667' height = '243.18658280922432' hspace='5'><img src= stimuli/temporalOrder/20.png width = '386.6666666666667' height = '243.18658280922432' hspace='5'><p>Press 1, 2 or 3.</p>","49","html-keyboard-response","16","131423","0.0-3.0-1.3","","temporalOrder","1","23"
"null","","null","html-keyboard-response","17","131923","0.0-3.0-2.3","","blank","",""
"7856","<img src= stimuli/temporalOrder/23.png width = '386.6666666666667' height = '243.18658280922432'><p>In which room was the object?</p><img src= stimuli/contextMemory/41.png width = '386.6666666666667' height = '243.18658280922432' hspace='5'><img src= stimuli/contextMemory/18.png width = '386.6666666666667' height = '243.18658280922432' hspace='5'><img src= stimuli/contextMemory/36.png width = '386.6666666666667' height = '243.18658280922432' hspace='5'><p>Press 1, 2 or 3.</p>","51","html-keyboard-response","18","139783","0.0-3.0-3.3","","contextMemory","3","23"
"null","<div style=""font-size:60px;"">+</div>","null","html-keyboard-response","19","140295","0.0-3.0-0.4","","fixation","",""
"6431","<img src= stimuli/temporalOrder/79.png width = '386.6666666666667' height = '243.18658280922432'><p>What came before this object?</p><img src= stimuli/temporalOrder/51.png width = '386.6666666666667' height = '243.18658280922432' hspace='5'><img src= stimuli/temporalOrder/75.png width = '386.6666666666667' height = '243.18658280922432' hspace='5'><img src= stimuli/temporalOrder/34.png width = '386.6666666666667' height = '243.18658280922432' hspace='5'><p>Press 1, 2 or 3.</p>","49","html-keyboard-response","20","146728","0.0-3.0-1.4","","temporalOrder","1","79"
"null","","null","html-keyboard-response","21","147236","0.0-3.0-2.4","","blank","",""
"4535","<img src= stimuli/temporalOrder/79.png width = '386.6666666666667' height = '243.18658280922432'><p>In which room was the object?</p><img src= stimuli/contextMemory/17.png width = '386.6666666666667' height = '243.18658280922432' hspace='5'><img src= stimuli/contextMemory/30.png width = '386.6666666666667' height = '243.18658280922432' hspace='5'><img src= stimuli/contextMemory/20.png width = '386.6666666666667' height = '243.18658280922432' hspace='5'><p>Press 1, 2 or 3.</p>","51","html-keyboard-response","22","151775","0.0-3.0-3.4","","contextMemory","3","79"
"null","<div style=""font-size:60px;"">+</div>","null","html-keyboard-response","23","152281","0.0-3.0-0.5","","fixation","",""
"9397","<img src= stimuli/temporalOrder/81.png width = '386.6666666666667' height = '243.18658280922432'><p>What came before this object?</p><img src= stimuli/temporalOrder/9.png width = '386.6666666666667' height = '243.18658280922432' hspace='5'><img src= stimuli/temporalOrder/56.png width = '386.6666666666667' height = '243.18658280922432' hspace='5'><img src= stimuli/temporalOrder/69.png width = '386.6666666666667' height = '243.18658280922432' hspace='5'><p>Press 1, 2 or 3.</p>","51","html-keyboard-response","24","161682","0.0-3.0-1.5","","temporalOrder","3","81"
"null","","null","html-keyboard-response","25","162184","0.0-3.0-2.5","","blank","",""
"3564","<img src= stimuli/temporalOrder/81.png width = '386.6666666666667' height = '243.18658280922432'><p>In which room was the object?</p><img src= stimuli/contextMemory/9.png width = '386.6666666666667' height = '243.18658280922432' hspace='5'><img src= stimuli/contextMemory/13.png width = '386.6666666666667' height = '243.18658280922432' hspace='5'><img src= stimuli/contextMemory/6.png width = '386.6666666666667' height = '243.18658280922432' hspace='5'><p>Press 1, 2 or 3.</p>","49","html-keyboard-response","26","165751","0.0-3.0-3.5","","contextMemory","3","81"
"null","<div style=""font-size:60px;"">+</div>","null","html-keyboard-response","27","166261","0.0-3.0-0.6","","fixation","",""
"8152","<img src= stimuli/temporalOrder/55.png width = '386.6666666666667' height = '243.18658280922432'><p>What came after this object?</p><img src= stimuli/temporalOrder/21.png width = '386.6666666666667' height = '243.18658280922432' hspace='5'><img src= stimuli/temporalOrder/45.png width = '386.6666666666667' height = '243.18658280922432' hspace='5'><img src= stimuli/temporalOrder/62.png width = '386.6666666666667' height = '243.18658280922432' hspace='5'><p>Press 1, 2 or 3.</p>","49","html-keyboard-response","28","174413","0.0-3.0-1.6","","temporalOrder","1","55"
"null","","null","html-keyboard-response","29","174913","0.0-3.0-2.6","","blank","",""
"6982","<img src= stimuli/temporalOrder/55.png width = '386.6666666666667' height = '243.18658280922432'><p>In which room was the object?</p><img src= stimuli/contextMemory/37.png width = '386.6666666666667' height = '243.18658280922432' hspace='5'><img src= stimuli/contextMemory/3.png width = '386.6666666666667' height = '243.18658280922432' hspace='5'><img src= stimuli/contextMemory/40.png width = '386.6666666666667' height = '243.18658280922432' hspace='5'><p>Press 1, 2 or 3.</p>","49","html-keyboard-response","30","181896","0.0-3.0-3.6","","contextMemory","1","55"
"null","<div style=""font-size:60px;"">+</div>","null","html-keyboard-response","31","182402","0.0-3.0-0.7","","fixation","",""
"19932","<img src= stimuli/temporalOrder/39.png width = '386.6666666666667' height = '243.18658280922432'><p>What came before this object?</p><img src= stimuli/temporalOrder/19.png width = '386.6666666666667' height = '243.18658280922432' hspace='5'><img src= stimuli/temporalOrder/4.png width = '386.6666666666667' height = '243.18658280922432' hspace='5'><img src= stimuli/temporalOrder/59.png width = '386.6666666666667' height = '243.18658280922432' hspace='5'><p>Press 1, 2 or 3.</p>","51","html-keyboard-response","32","202338","0.0-3.0-1.7","","temporalOrder","2","39"
"null","","null","html-keyboard-response","33","202842","0.0-3.0-2.7","","blank","",""
"2371","<img src= stimuli/temporalOrder/39.png width = '386.6666666666667' height = '243.18658280922432'><p>In which room was the object?</p><img src= stimuli/contextMemory/2.png width = '386.6666666666667' height = '243.18658280922432' hspace='5'><img src= stimuli/contextMemory/25.png width = '386.6666666666667' height = '243.18658280922432' hspace='5'><img src= stimuli/contextMemory/18.png width = '386.6666666666667' height = '243.18658280922432' hspace='5'><p>Press 1, 2 or 3.</p>","51","html-keyboard-response","34","205215","0.0-3.0-3.7","","contextMemory","1","39"
"null","<div style=""font-size:60px;"">+</div>","null","html-keyboard-response","35","205732","0.0-3.0-0.8","","fixation","",""
"17889","<img src= stimuli/temporalOrder/64.png width = '386.6666666666667' height = '243.18658280922432'><p>What came before this object?</p><img src= stimuli/temporalOrder/29.png width = '386.6666666666667' height = '243.18658280922432' hspace='5'><img src= stimuli/temporalOrder/83.png width = '386.6666666666667' height = '243.18658280922432' hspace='5'><img src= stimuli/temporalOrder/32.png width = '386.6666666666667' height = '243.18658280922432' hspace='5'><p>Press 1, 2 or 3.</p>","49","html-keyboard-response","36","223624","0.0-3.0-1.8","","temporalOrder","2","64"
"null","","null","html-keyboard-response","37","224129","0.0-3.0-2.8","","blank","",""
"964","<img src= stimuli/temporalOrder/64.png width = '386.6666666666667' height = '243.18658280922432'><p>In which room was the object?</p><img src= stimuli/contextMemory/13.png width = '386.6666666666667' height = '243.18658280922432' hspace='5'><img src= stimuli/contextMemory/29.png width = '386.6666666666667' height = '243.18658280922432' hspace='5'><img src= stimuli/contextMemory/28.png width = '386.6666666666667' height = '243.18658280922432' hspace='5'><p>Press 1, 2 or 3.</p>","51","html-keyboard-response","38","225094","0.0-3.0-3.8","","contextMemory","1","64"
"null","<div style=""font-size:60px;"">+</div>","null","html-keyboard-response","39","225605","0.0-3.0-0.9","","fixation","",""
"20135","<img src= stimuli/temporalOrder/83.png width = '386.6666666666667' height = '243.18658280922432'><p>What came before this object?</p><img src= stimuli/temporalOrder/86.png width = '386.6666666666667' height = '243.18658280922432' hspace='5'><img src= stimuli/temporalOrder/77.png width = '386.6666666666667' height = '243.18658280922432' hspace='5'><img src= stimuli/temporalOrder/43.png width = '386.6666666666667' height = '243.18658280922432' hspace='5'><p>Press 1, 2 or 3.</p>","51","html-keyboard-response","40","245743","0.0-3.0-1.9","","temporalOrder","3","83"
"null","","null","html-keyboard-response","41","246251","0.0-3.0-2.9","","blank","",""
"1386","<img src= stimuli/temporalOrder/83.png width = '386.6666666666667' height = '243.18658280922432'><p>In which room was the object?</p><img src= stimuli/contextMemory/12.png width = '386.6666666666667' height = '243.18658280922432' hspace='5'><img src= stimuli/contextMemory/36.png width = '386.6666666666667' height = '243.18658280922432' hspace='5'><img src= stimuli/contextMemory/6.png width = '386.6666666666667' height = '243.18658280922432' hspace='5'><p>Press 1, 2 or 3.</p>","50","html-keyboard-response","42","247640","0.0-3.0-3.9","","contextMemory","1","83"
"null","<div style=""font-size:60px;"">+</div>","null","html-keyboard-response","43","248146","0.0-3.0-0.10","","fixation","",""
"3754","<img src= stimuli/temporalOrder/49.png width = '386.6666666666667' height = '243.18658280922432'><p>What came after this object?</p><img src= stimuli/temporalOrder/31.png width = '386.6666666666667' height = '243.18658280922432' hspace='5'><img src= stimuli/temporalOrder/53.png width = '386.6666666666667' height = '243.18658280922432' hspace='5'><img src= stimuli/temporalOrder/85.png width = '386.6666666666667' height = '243.18658280922432' hspace='5'><p>Press 1, 2 or 3.</p>","49","html-keyboard-response","44","251903","0.0-3.0-1.10","","temporalOrder","1","49"
"null","","null","html-keyboard-response","45","252405","0.0-3.0-2.10","","blank","",""
"2471","<img src= stimuli/temporalOrder/49.png width = '386.6666666666667' height = '243.18658280922432'><p>In which room was the object?</p><img src= stimuli/contextMemory/22.png width = '386.6666666666667' height = '243.18658280922432' hspace='5'><img src= stimuli/contextMemory/10.png width = '386.6666666666667' height = '243.18658280922432' hspace='5'><img src= stimuli/contextMemory/26.png width = '386.6666666666667' height = '243.18658280922432' hspace='5'><p>Press 1, 2 or 3.</p>","49","html-keyboard-response","46","254878","0.0-3.0-3.10","","contextMemory","3","49"
"null","<div style=""font-size:60px;"">+</div>","null","html-keyboard-response","47","255380","0.0-3.0-0.11","","fixation","",""
"8832","<img src= stimuli/temporalOrder/0.png width = '386.6666666666667' height = '243.18658280922432'><p>What came after this object?</p><img src= stimuli/temporalOrder/77.png width = '386.6666666666667' height = '243.18658280922432' hspace='5'><img src= stimuli/temporalOrder/83.png width = '386.6666666666667' height = '243.18658280922432' hspace='5'><img src= stimuli/temporalOrder/8.png width = '386.6666666666667' height = '243.18658280922432' hspace='5'><p>Press 1, 2 or 3.</p>","50","html-keyboard-response","48","264215","0.0-3.0-1.11","","temporalOrder","3","0"
"null","","null","html-keyboard-response","49","264715","0.0-3.0-2.11","","blank","",""
"723","<img src= stimuli/temporalOrder/0.png width = '386.6666666666667' height = '243.18658280922432'><p>In which room was the object?</p><img src= stimuli/contextMemory/43.png width = '386.6666666666667' height = '243.18658280922432' hspace='5'><img src= stimuli/contextMemory/37.png width = '386.6666666666667' height = '243.18658280922432' hspace='5'><img src= stimuli/contextMemory/9.png width = '386.6666666666667' height = '243.18658280922432' hspace='5'><p>Press 1, 2 or 3.</p>","50","html-keyboard-response","50","265439","0.0-3.0-3.11","","contextMemory","3","0"
"null","<div style=""font-size:60px;"">+</div>","null","html-keyboard-response","51","265947","0.0-3.0-0.12","","fixation","",""
"9185","<img src= stimuli/temporalOrder/44.png width = '386.6666666666667' height = '243.18658280922432'><p>What came after this object?</p><img src= stimuli/temporalOrder/25.png width = '386.6666666666667' height = '243.18658280922432' hspace='5'><img src= stimuli/temporalOrder/21.png width = '386.6666666666667' height = '243.18658280922432' hspace='5'><img src= stimuli/temporalOrder/71.png width = '386.6666666666667' height = '243.18658280922432' hspace='5'><p>Press 1, 2 or 3.</p>","49","html-keyboard-response","52","275135","0.0-3.0-1.12","","temporalOrder","3","44"
"null","","null","html-keyboard-response","53","275642","0.0-3.0-2.12","","blank","",""
"1577","<img src= stimuli/temporalOrder/44.png width = '386.6666666666667' height = '243.18658280922432'><p>In which room was the object?</p><img src= stimuli/contextMemory/41.png width = '386.6666666666667' height = '243.18658280922432' hspace='5'><img src= stimuli/contextMemory/42.png width = '386.6666666666667' height = '243.18658280922432' hspace='5'><img src= stimuli/contextMemory/4.png width = '386.6666666666667' height = '243.18658280922432' hspace='5'><p>Press 1, 2 or 3.</p>","49","html-keyboard-response","54","277221","0.0-3.0-3.12","","contextMemory","3","44"
"null","<div style=""font-size:60px;"">+</div>","null","html-keyboard-response","55","277736","0.0-3.0-0.13","","fixation","",""
"13381","<img src= stimuli/temporalOrder/38.png width = '386.6666666666667' height = '243.18658280922432'><p>What came after this object?</p><img src= stimuli/temporalOrder/52.png width = '386.6666666666667' height = '243.18658280922432' hspace='5'><img src= stimuli/temporalOrder/69.png width = '386.6666666666667' height = '243.18658280922432' hspace='5'><img src= stimuli/temporalOrder/42.png width = '386.6666666666667' height = '243.18658280922432' hspace='5'><p>Press 1, 2 or 3.</p>","51","html-keyboard-response","56","291119","0.0-3.0-1.13","","temporalOrder","3","38"
"null","","null","html-keyboard-response","57","291625","0.0-3.0-2.13","","blank","",""
"1462","<img src= stimuli/temporalOrder/38.png width = '386.6666666666667' height = '243.18658280922432'><p>In which room was the object?</p><img src= stimuli/contextMemory/20.png width = '386.6666666666667' height = '243.18658280922432' hspace='5'><img src= stimuli/contextMemory/22.png width = '386.6666666666667' height = '243.18658280922432' hspace='5'><img src= stimuli/contextMemory/43.png width = '386.6666666666667' height = '243.18658280922432' hspace='5'><p>Press 1, 2 or 3.</p>","49","html-keyboard-response","58","293087","0.0-3.0-3.13","","contextMemory","3","38"
"null","<div style=""font-size:60px;"">+</div>","null","html-keyboard-response","59","293602","0.0-3.0-0.14","","fixation","",""
"13098","<img src= stimuli/temporalOrder/22.png width = '386.6666666666667' height = '243.18658280922432'><p>What came after this object?</p><img src= stimuli/temporalOrder/83.png width = '386.6666666666667' height = '243.18658280922432' hspace='5'><img src= stimuli/temporalOrder/84.png width = '386.6666666666667' height = '243.18658280922432' hspace='5'><img src= stimuli/temporalOrder/81.png width = '386.6666666666667' height = '243.18658280922432' hspace='5'><p>Press 1, 2 or 3.</p>","50","html-keyboard-response","60","306703","0.0-3.0-1.14","","temporalOrder","2","22"
"null","","null","html-keyboard-response","61","307203","0.0-3.0-2.14","","blank","",""
"2041","<img src= stimuli/temporalOrder/22.png width = '386.6666666666667' height = '243.18658280922432'><p>In which room was the object?</p><img src= stimuli/contextMemory/7.png width = '386.6666666666667' height = '243.18658280922432' hspace='5'><img src= stimuli/contextMemory/18.png width = '386.6666666666667' height = '243.18658280922432' hspace='5'><img src= stimuli/contextMemory/24.png width = '386.6666666666667' height = '243.18658280922432' hspace='5'><p>Press 1, 2 or 3.</p>","51","html-keyboard-response","62","309247","0.0-3.0-3.14","","contextMemory","1","22"
"null","<div style=""font-size:60px;"">+</div>","null","html-keyboard-response","63","309759","0.0-3.0-0.15","","fixation","",""
"10333","<img src= stimuli/temporalOrder/74.png width = '386.6666666666667' height = '243.18658280922432'><p>What came after this object?</p><img src= stimuli/temporalOrder/44.png width = '386.6666666666667' height = '243.18658280922432' hspace='5'><img src= stimuli/temporalOrder/73.png width = '386.6666666666667' height = '243.18658280922432' hspace='5'><img src= stimuli/temporalOrder/67.png width = '386.6666666666667' height = '243.18658280922432' hspace='5'><p>Press 1, 2 or 3.</p>","50","html-keyboard-response","64","320095","0.0-3.0-1.15","","temporalOrder","1","74"
"null","","null","html-keyboard-response","65","320600","0.0-3.0-2.15","","blank","",""
"3933","<img src= stimuli/temporalOrder/74.png width = '386.6666666666667' height = '243.18658280922432'><p>In which room was the object?</p><img src= stimuli/contextMemory/3.png width = '386.6666666666667' height = '243.18658280922432' hspace='5'><img src= stimuli/contextMemory/44.png width = '386.6666666666667' height = '243.18658280922432' hspace='5'><img src= stimuli/contextMemory/24.png width = '386.6666666666667' height = '243.18658280922432' hspace='5'><p>Press 1, 2 or 3.</p>","49","html-keyboard-response","66","324535","0.0-3.0-3.15","","contextMemory","1","74"
"null","<div style=""font-size:60px;"">+</div>","null","html-keyboard-response","67","325044","0.0-3.0-0.16","","fixation","",""
"12256","<img src= stimuli/temporalOrder/1.png width = '386.6666666666667' height = '243.18658280922432'><p>What came after this object?</p><img src= stimuli/temporalOrder/59.png width = '386.6666666666667' height = '243.18658280922432' hspace='5'><img src= stimuli/temporalOrder/44.png width = '386.6666666666667' height = '243.18658280922432' hspace='5'><img src= stimuli/temporalOrder/64.png width = '386.6666666666667' height = '243.18658280922432' hspace='5'><p>Press 1, 2 or 3.</p>","50","html-keyboard-response","68","337302","0.0-3.0-1.16","","temporalOrder","1","1"
"null","","null","html-keyboard-response","69","337811","0.0-3.0-2.16","","blank","",""
"1049","<img src= stimuli/temporalOrder/1.png width = '386.6666666666667' height = '243.18658280922432'><p>In which room was the object?</p><img src= stimuli/contextMemory/27.png width = '386.6666666666667' height = '243.18658280922432' hspace='5'><img src= stimuli/contextMemory/31.png width = '386.6666666666667' height = '243.18658280922432' hspace='5'><img src= stimuli/contextMemory/33.png width = '386.6666666666667' height = '243.18658280922432' hspace='5'><p>Press 1, 2 or 3.</p>","49","html-keyboard-response","70","338863","0.0-3.0-3.16","","contextMemory","1","1"
"null","<div style=""font-size:60px;"">+</div>","null","html-keyboard-response","71","339363","0.0-3.0-0.17","","fixation","",""
"17090","<img src= stimuli/temporalOrder/77.png width = '386.6666666666667' height = '243.18658280922432'><p>What came before this object?</p><img src= stimuli/temporalOrder/76.png width = '386.6666666666667' height = '243.18658280922432' hspace='5'><img src= stimuli/temporalOrder/36.png width = '386.6666666666667' height = '243.18658280922432' hspace='5'><img src= stimuli/temporalOrder/81.png width = '386.6666666666667' height = '243.18658280922432' hspace='5'><p>Press 1, 2 or 3.</p>","50","html-keyboard-response","72","356453","0.0-3.0-1.17","","temporalOrder","3","77"
"null","","null","html-keyboard-response","73","356962","0.0-3.0-2.17","","blank","",""
"1586","<img src= stimuli/temporalOrder/77.png width = '386.6666666666667' height = '243.18658280922432'><p>In which room was the object?</p><img src= stimuli/contextMemory/3.png width = '386.6666666666667' height = '243.18658280922432' hspace='5'><img src= stimuli/contextMemory/6.png width = '386.6666666666667' height = '243.18658280922432' hspace='5'><img src= stimuli/contextMemory/37.png width = '386.6666666666667' height = '243.18658280922432' hspace='5'><p>Press 1, 2 or 3.</p>","50","html-keyboard-response","74","358549","0.0-3.0-3.17","","contextMemory","2","77"
"null","<div style=""font-size:60px;"">+</div>","null","html-keyboard-response","75","359054","0.0-3.0-0.18","","fixation","",""
"4762","<img src= stimuli/temporalOrder/65.png width = '386.6666666666667' height = '243.18658280922432'><p>What came after this object?</p><img src= stimuli/temporalOrder/3.png width = '386.6666666666667' height = '243.18658280922432' hspace='5'><img src= stimuli/temporalOrder/17.png width = '386.6666666666667' height = '243.18658280922432' hspace='5'><img src= stimuli/temporalOrder/15.png width = '386.6666666666667' height = '243.18658280922432' hspace='5'><p>Press 1, 2 or 3.</p>","50","html-keyboard-response","76","363819","0.0-3.0-1.18","","temporalOrder","2","65"
"null","","null","html-keyboard-response","77","364322","0.0-3.0-2.18","","blank","",""
"3114","<img src= stimuli/temporalOrder/65.png width = '386.6666666666667' height = '243.18658280922432'><p>In which room was the object?</p><img src= stimuli/contextMemory/10.png width = '386.6666666666667' height = '243.18658280922432' hspace='5'><img src= stimuli/contextMemory/16.png width = '386.6666666666667' height = '243.18658280922432' hspace='5'><img src= stimuli/contextMemory/41.png width = '386.6666666666667' height = '243.18658280922432' hspace='5'><p>Press 1, 2 or 3.</p>","51","html-keyboard-response","78","367439","0.0-3.0-3.18","","contextMemory","2","65"
"null","<div style=""font-size:60px;"">+</div>","null","html-keyboard-response","79","367949","0.0-3.0-0.19","","fixation","",""
"2351","<img src= stimuli/temporalOrder/15.png width = '386.6666666666667' height = '243.18658280922432'><p>What came after this object?</p><img src= stimuli/temporalOrder/72.png width = '386.6666666666667' height = '243.18658280922432' hspace='5'><img src= stimuli/temporalOrder/76.png width = '386.6666666666667' height = '243.18658280922432' hspace='5'><img src= stimuli/temporalOrder/35.png width = '386.6666666666667' height = '243.18658280922432' hspace='5'><p>Press 1, 2 or 3.</p>","50","html-keyboard-response","80","370301","0.0-3.0-1.19","","temporalOrder","2","15"
"null","","null","html-keyboard-response","81","370809","0.0-3.0-2.19","","blank","",""
"4730","<img src= stimuli/temporalOrder/15.png width = '386.6666666666667' height = '243.18658280922432'><p>In which room was the object?</p><img src= stimuli/contextMemory/1.png width = '386.6666666666667' height = '243.18658280922432' hspace='5'><img src= stimuli/contextMemory/44.png width = '386.6666666666667' height = '243.18658280922432' hspace='5'><img src= stimuli/contextMemory/19.png width = '386.6666666666667' height = '243.18658280922432' hspace='5'><p>Press 1, 2 or 3.</p>","51","html-keyboard-response","82","375541","0.0-3.0-3.19","","contextMemory","3","15"
"null","<div style=""font-size:60px;"">+</div>","null","html-keyboard-response","83","376042","0.0-3.0-0.20","","fixation","",""
"4906","<img src= stimuli/temporalOrder/8.png width = '386.6666666666667' height = '243.18658280922432'><p>What came after this object?</p><img src= stimuli/temporalOrder/12.png width = '386.6666666666667' height = '243.18658280922432' hspace='5'><img src= stimuli/temporalOrder/74.png width = '386.6666666666667' height = '243.18658280922432' hspace='5'><img src= stimuli/temporalOrder/61.png width = '386.6666666666667' height = '243.18658280922432' hspace='5'><p>Press 1, 2 or 3.</p>","51","html-keyboard-response","84","380950","0.0-3.0-1.20","","temporalOrder","3","8"
"null","","null","html-keyboard-response","85","381460","0.0-3.0-2.20","","blank","",""
"4072","<img src= stimuli/temporalOrder/8.png width = '386.6666666666667' height = '243.18658280922432'><p>In which room was the object?</p><img src= stimuli/contextMemory/32.png width = '386.6666666666667' height = '243.18658280922432' hspace='5'><img src= stimuli/contextMemory/10.png width = '386.6666666666667' height = '243.18658280922432' hspace='5'><img src= stimuli/contextMemory/20.png width = '386.6666666666667' height = '243.18658280922432' hspace='5'><p>Press 1, 2 or 3.</p>","49","html-keyboard-response","86","385534","0.0-3.0-3.20","","contextMemory","2","8"
"null","<div style=""font-size:60px;"">+</div>","null","html-keyboard-response","87","386042","0.0-3.0-0.21","","fixation","",""
"12435","<img src= stimuli/temporalOrder/46.png width = '386.6666666666667' height = '243.18658280922432'><p>What came before this object?</p><img src= stimuli/temporalOrder/70.png width = '386.6666666666667' height = '243.18658280922432' hspace='5'><img src= stimuli/temporalOrder/74.png width = '386.6666666666667' height = '243.18658280922432' hspace='5'><img src= stimuli/temporalOrder/61.png width = '386.6666666666667' height = '243.18658280922432' hspace='5'><p>Press 1, 2 or 3.</p>","51","html-keyboard-response","88","398478","0.0-3.0-1.21","","temporalOrder","3","46"
"null","","null","html-keyboard-response","89","398981","0.0-3.0-2.21","","blank","",""
"2926","<img src= stimuli/temporalOrder/46.png width = '386.6666666666667' height = '243.18658280922432'><p>In which room was the object?</p><img src= stimuli/contextMemory/11.png width = '386.6666666666667' height = '243.18658280922432' hspace='5'><img src= stimuli/contextMemory/34.png width = '386.6666666666667' height = '243.18658280922432' hspace='5'><img src= stimuli/contextMemory/24.png width = '386.6666666666667' height = '243.18658280922432' hspace='5'><p>Press 1, 2 or 3.</p>","51","html-keyboard-response","90","401910","0.0-3.0-3.21","","contextMemory","1","46"
"null","<div style=""font-size:60px;"">+</div>","null","html-keyboard-response","91","402414","0.0-3.0-0.22","","fixation","",""
"14881","<img src= stimuli/temporalOrder/73.png width = '386.6666666666667' height = '243.18658280922432'><p>What came before this object?</p><img src= stimuli/temporalOrder/12.png width = '386.6666666666667' height = '243.18658280922432' hspace='5'><img src= stimuli/temporalOrder/57.png width = '386.6666666666667' height = '243.18658280922432' hspace='5'><img src= stimuli/temporalOrder/41.png width = '386.6666666666667' height = '243.18658280922432' hspace='5'><p>Press 1, 2 or 3.</p>","49","html-keyboard-response","92","417298","0.0-3.0-1.22","","temporalOrder","1","73"
"null","","null","html-keyboard-response","93","417798","0.0-3.0-2.22","","blank","",""
"805","<img src= stimuli/temporalOrder/73.png width = '386.6666666666667' height = '243.18658280922432'><p>In which room was the object?</p><img src= stimuli/contextMemory/35.png width = '386.6666666666667' height = '243.18658280922432' hspace='5'><img src= stimuli/contextMemory/9.png width = '386.6666666666667' height = '243.18658280922432' hspace='5'><img src= stimuli/contextMemory/29.png width = '386.6666666666667' height = '243.18658280922432' hspace='5'><p>Press 1, 2 or 3.</p>","50","html-keyboard-response","94","418605","0.0-3.0-3.22","","contextMemory","2","73"
"null","<div style=""font-size:60px;"">+</div>","null","html-keyboard-response","95","419109","0.0-3.0-0.23","","fixation","",""
"6760","<img src= stimuli/temporalOrder/41.png width = '386.6666666666667' height = '243.18658280922432'><p>What came after this object?</p><img src= stimuli/temporalOrder/64.png width = '386.6666666666667' height = '243.18658280922432' hspace='5'><img src= stimuli/temporalOrder/72.png width = '386.6666666666667' height = '243.18658280922432' hspace='5'><img src= stimuli/temporalOrder/25.png width = '386.6666666666667' height = '243.18658280922432' hspace='5'><p>Press 1, 2 or 3.</p>","50","html-keyboard-response","96","425870","0.0-3.0-1.23","","temporalOrder","3","41"
"null","","null","html-keyboard-response","97","426383","0.0-3.0-2.23","","blank","",""
"2747","<img src= stimuli/temporalOrder/41.png width = '386.6666666666667' height = '243.18658280922432'><p>In which room was the object?</p><img src= stimuli/contextMemory/17.png width = '386.6666666666667' height = '243.18658280922432' hspace='5'><img src= stimuli/contextMemory/6.png width = '386.6666666666667' height = '243.18658280922432' hspace='5'><img src= stimuli/contextMemory/31.png width = '386.6666666666667' height = '243.18658280922432' hspace='5'><p>Press 1, 2 or 3.</p>","51","html-keyboard-response","98","429132","0.0-3.0-3.23","","contextMemory","3","41"
"null","<div style=""font-size:60px;"">+</div>","null","html-keyboard-response","99","429647","0.0-3.0-0.24","","fixation","",""
"11309","<img src= stimuli/temporalOrder/76.png width = '386.6666666666667' height = '243.18658280922432'><p>What came before this object?</p><img src= stimuli/temporalOrder/38.png width = '386.6666666666667' height = '243.18658280922432' hspace='5'><img src= stimuli/temporalOrder/13.png width = '386.6666666666667' height = '243.18658280922432' hspace='5'><img src= stimuli/temporalOrder/15.png width = '386.6666666666667' height = '243.18658280922432' hspace='5'><p>Press 1, 2 or 3.</p>","51","html-keyboard-response","100","440958","0.0-3.0-1.24","","temporalOrder","3","76"
"null","","null","html-keyboard-response","101","441462","0.0-3.0-2.24","","blank","",""
"2086","<img src= stimuli/temporalOrder/76.png width = '386.6666666666667' height = '243.18658280922432'><p>In which room was the object?</p><img src= stimuli/contextMemory/34.png width = '386.6666666666667' height = '243.18658280922432' hspace='5'><img src= stimuli/contextMemory/19.png width = '386.6666666666667' height = '243.18658280922432' hspace='5'><img src= stimuli/contextMemory/7.png width = '386.6666666666667' height = '243.18658280922432' hspace='5'><p>Press 1, 2 or 3.</p>","49","html-keyboard-response","102","443551","0.0-3.0-3.24","","contextMemory","2","76"
"null","<div style=""font-size:60px;"">+</div>","null","html-keyboard-response","103","444064","0.0-3.0-0.25","","fixation","",""
"13654","<img src= stimuli/temporalOrder/80.png width = '386.6666666666667' height = '243.18658280922432'><p>What came before this object?</p><img src= stimuli/temporalOrder/20.png width = '386.6666666666667' height = '243.18658280922432' hspace='5'><img src= stimuli/temporalOrder/29.png width = '386.6666666666667' height = '243.18658280922432' hspace='5'><img src= stimuli/temporalOrder/8.png width = '386.6666666666667' height = '243.18658280922432' hspace='5'><p>Press 1, 2 or 3.</p>","50","html-keyboard-response","104","457718","0.0-3.0-1.25","","temporalOrder","2","80"
"null","","null","html-keyboard-response","105","458230","0.0-3.0-2.25","","blank","",""
"2915","<img src= stimuli/temporalOrder/80.png width = '386.6666666666667' height = '243.18658280922432'><p>In which room was the object?</p><img src= stimuli/contextMemory/2.png width = '386.6666666666667' height = '243.18658280922432' hspace='5'><img src= stimuli/contextMemory/21.png width = '386.6666666666667' height = '243.18658280922432' hspace='5'><img src= stimuli/contextMemory/38.png width = '386.6666666666667' height = '243.18658280922432' hspace='5'><p>Press 1, 2 or 3.</p>","50","html-keyboard-response","106","461149","0.0-3.0-3.25","","contextMemory","2","80"
"null","<div style=""font-size:60px;"">+</div>","null","html-keyboard-response","107","461661","0.0-3.0-0.26","","fixation","",""
"7846","<img src= stimuli/temporalOrder/30.png width = '386.6666666666667' height = '243.18658280922432'><p>What came after this object?</p><img src= stimuli/temporalOrder/43.png width = '386.6666666666667' height = '243.18658280922432' hspace='5'><img src= stimuli/temporalOrder/72.png width = '386.6666666666667' height = '243.18658280922432' hspace='5'><img src= stimuli/temporalOrder/87.png width = '386.6666666666667' height = '243.18658280922432' hspace='5'><p>Press 1, 2 or 3.</p>","51","html-keyboard-response","108","469513","0.0-3.0-1.26","","temporalOrder","2","30"
"null","","null","html-keyboard-response","109","470015","0.0-3.0-2.26","","blank","",""
"4811","<img src= stimuli/temporalOrder/30.png width = '386.6666666666667' height = '243.18658280922432'><p>In which room was the object?</p><img src= stimuli/contextMemory/12.png width = '386.6666666666667' height = '243.18658280922432' hspace='5'><img src= stimuli/contextMemory/14.png width = '386.6666666666667' height = '243.18658280922432' hspace='5'><img src= stimuli/contextMemory/16.png width = '386.6666666666667' height = '243.18658280922432' hspace='5'><p>Press 1, 2 or 3.</p>","49","html-keyboard-response","110","474828","0.0-3.0-3.26","","contextMemory","2","30"
"null","<div style=""font-size:60px;"">+</div>","null","html-keyboard-response","111","475343","0.0-3.0-0.27","","fixation","",""
"4836","<img src= stimuli/temporalOrder/13.png width = '386.6666666666667' height = '243.18658280922432'><p>What came before this object?</p><img src= stimuli/temporalOrder/68.png width = '386.6666666666667' height = '243.18658280922432' hspace='5'><img src= stimuli/temporalOrder/37.png width = '386.6666666666667' height = '243.18658280922432' hspace='5'><img src= stimuli/temporalOrder/58.png width = '386.6666666666667' height = '243.18658280922432' hspace='5'><p>Press 1, 2 or 3.</p>","49","html-keyboard-response","112","480180","0.0-3.0-1.27","","temporalOrder","1","13"
"null","","null","html-keyboard-response","113","480685","0.0-3.0-2.27","","blank","",""
"7079","<img src= stimuli/temporalOrder/13.png width = '386.6666666666667' height = '243.18658280922432'><p>In which room was the object?</p><img src= stimuli/contextMemory/15.png width = '386.6666666666667' height = '243.18658280922432' hspace='5'><img src= stimuli/contextMemory/38.png width = '386.6666666666667' height = '243.18658280922432' hspace='5'><img src= stimuli/contextMemory/40.png width = '386.6666666666667' height = '243.18658280922432' hspace='5'><p>Press 1, 2 or 3.</p>","51","html-keyboard-response","114","487765","0.0-3.0-3.27","","contextMemory","3","13"
"null","<div style=""font-size:60px;"">+</div>","null","html-keyboard-response","115","488267","0.0-3.0-0.28","","fixation","",""
"18113","<img src= stimuli/temporalOrder/51.png width = '386.6666666666667' height = '243.18658280922432'><p>What came before this object?</p><img src= stimuli/temporalOrder/30.png width = '386.6666666666667' height = '243.18658280922432' hspace='5'><img src= stimuli/temporalOrder/76.png width = '386.6666666666667' height = '243.18658280922432' hspace='5'><img src= stimuli/temporalOrder/82.png width = '386.6666666666667' height = '243.18658280922432' hspace='5'><p>Press 1, 2 or 3.</p>","50","html-keyboard-response","116","506384","0.0-3.0-1.28","","temporalOrder","2","51"
"null","","null","html-keyboard-response","117","506884","0.0-3.0-2.28","","blank","",""
"6520","<img src= stimuli/temporalOrder/51.png width = '386.6666666666667' height = '243.18658280922432'><p>In which room was the object?</p><img src= stimuli/contextMemory/20.png width = '386.6666666666667' height = '243.18658280922432' hspace='5'><img src= stimuli/contextMemory/3.png width = '386.6666666666667' height = '243.18658280922432' hspace='5'><img src= stimuli/contextMemory/30.png width = '386.6666666666667' height = '243.18658280922432' hspace='5'><p>Press 1, 2 or 3.</p>","49","html-keyboard-response","118","513405","0.0-3.0-3.28","","contextMemory","1","51"
"null","<div style=""font-size:60px;"">+</div>","null","html-keyboard-response","119","513915","0.0-3.0-0.29","","fixation","",""
"7136","<img src= stimuli/temporalOrder/37.png width = '386.6666666666667' height = '243.18658280922432'><p>What came after this object?</p><img src= stimuli/temporalOrder/63.png width = '386.6666666666667' height = '243.18658280922432' hspace='5'><img src= stimuli/temporalOrder/61.png width = '386.6666666666667' height = '243.18658280922432' hspace='5'><img src= stimuli/temporalOrder/76.png width = '386.6666666666667' height = '243.18658280922432' hspace='5'><p>Press 1, 2 or 3.</p>","49","html-keyboard-response","120","521053","0.0-3.0-1.29","","temporalOrder","1","37"
"null","","null","html-keyboard-response","121","521569","0.0-3.0-2.29","","blank","",""
"1196","<img src= stimuli/temporalOrder/37.png width = '386.6666666666667' height = '243.18658280922432'><p>In which room was the object?</p><img src= stimuli/contextMemory/2.png width = '386.6666666666667' height = '243.18658280922432' hspace='5'><img src= stimuli/contextMemory/18.png width = '386.6666666666667' height = '243.18658280922432' hspace='5'><img src= stimuli/contextMemory/11.png width = '386.6666666666667' height = '243.18658280922432' hspace='5'><p>Press 1, 2 or 3.</p>","49","html-keyboard-response","122","522765","0.0-3.0-3.29","","contextMemory","2","37"
"null","<div style=""font-size:60px;"">+</div>","null","html-keyboard-response","123","523267","0.0-3.0-0.30","","fixation","",""
"6920","<img src= stimuli/temporalOrder/61.png width = '386.6666666666667' height = '243.18658280922432'><p>What came before this object?</p><img src= stimuli/temporalOrder/8.png width = '386.6666666666667' height = '243.18658280922432' hspace='5'><img src= stimuli/temporalOrder/36.png width = '386.6666666666667' height = '243.18658280922432' hspace='5'><img src= stimuli/temporalOrder/10.png width = '386.6666666666667' height = '243.18658280922432' hspace='5'><p>Press 1, 2 or 3.</p>","49","html-keyboard-response","124","530188","0.0-3.0-1.30","","temporalOrder","1","61"
"null","","null","html-keyboard-response","125","530698","0.0-3.0-2.30","","blank","",""
"3498","<img src= stimuli/temporalOrder/61.png width = '386.6666666666667' height = '243.18658280922432'><p>In which room was the object?</p><img src= stimuli/contextMemory/28.png width = '386.6666666666667' height = '243.18658280922432' hspace='5'><img src= stimuli/contextMemory/10.png width = '386.6666666666667' height = '243.18658280922432' hspace='5'><img src= stimuli/contextMemory/33.png width = '386.6666666666667' height = '243.18658280922432' hspace='5'><p>Press 1, 2 or 3.</p>","49","html-keyboard-response","126","534197","0.0-3.0-3.30","","contextMemory","2","61"
"null","<div style=""font-size:60px;"">+</div>","null","html-keyboard-response","127","534698","0.0-3.0-0.31","","fixation","",""
"6601","<img src= stimuli/temporalOrder/12.png width = '386.6666666666667' height = '243.18658280922432'><p>What came after this object?</p><img src= stimuli/temporalOrder/11.png width = '386.6666666666667' height = '243.18658280922432' hspace='5'><img src= stimuli/temporalOrder/2.png width = '386.6666666666667' height = '243.18658280922432' hspace='5'><img src= stimuli/temporalOrder/73.png width = '386.6666666666667' height = '243.18658280922432' hspace='5'><p>Press 1, 2 or 3.</p>","49","html-keyboard-response","128","541301","0.0-3.0-1.31","","temporalOrder","3","12"
"null","","null","html-keyboard-response","129","541809","0.0-3.0-2.31","","blank","",""
"8185","<img src= stimuli/temporalOrder/12.png width = '386.6666666666667' height = '243.18658280922432'><p>In which room was the object?</p><img src= stimuli/contextMemory/8.png width = '386.6666666666667' height = '243.18658280922432' hspace='5'><img src= stimuli/contextMemory/31.png width = '386.6666666666667' height = '243.18658280922432' hspace='5'><img src= stimuli/contextMemory/20.png width = '386.6666666666667' height = '243.18658280922432' hspace='5'><p>Press 1, 2 or 3.</p>","50","html-keyboard-response","130","549997","0.0-3.0-3.31","","contextMemory","1","12"
"null","<div style=""font-size:60px;"">+</div>","null","html-keyboard-response","131","550502","0.0-3.0-0.32","","fixation","",""
"5717","<img src= stimuli/temporalOrder/60.png width = '386.6666666666667' height = '243.18658280922432'><p>What came before this object?</p><img src= stimuli/temporalOrder/18.png width = '386.6666666666667' height = '243.18658280922432' hspace='5'><img src= stimuli/temporalOrder/51.png width = '386.6666666666667' height = '243.18658280922432' hspace='5'><img src= stimuli/temporalOrder/49.png width = '386.6666666666667' height = '243.18658280922432' hspace='5'><p>Press 1, 2 or 3.</p>","49","html-keyboard-response","132","556221","0.0-3.0-1.32","","temporalOrder","1","60"
"null","","null","html-keyboard-response","133","556732","0.0-3.0-2.32","","blank","",""
"3033","<img src= stimuli/temporalOrder/60.png width = '386.6666666666667' height = '243.18658280922432'><p>In which room was the object?</p><img src= stimuli/contextMemory/31.png width = '386.6666666666667' height = '243.18658280922432' hspace='5'><img src= stimuli/contextMemory/39.png width = '386.6666666666667' height = '243.18658280922432' hspace='5'><img src= stimuli/contextMemory/4.png width = '386.6666666666667' height = '243.18658280922432' hspace='5'><p>Press 1, 2 or 3.</p>","51","html-keyboard-response","134","559766","0.0-3.0-3.32","","contextMemory","1","60"
"null","<div style=""font-size:60px;"">+</div>","null","html-keyboard-response","135","560273","0.0-3.0-0.33","","fixation","",""
"3283","<img src= stimuli/temporalOrder/75.png width = '386.6666666666667' height = '243.18658280922432'><p>What came after this object?</p><img src= stimuli/temporalOrder/56.png width = '386.6666666666667' height = '243.18658280922432' hspace='5'><img src= stimuli/temporalOrder/54.png width = '386.6666666666667' height = '243.18658280922432' hspace='5'><img src= stimuli/temporalOrder/43.png width = '386.6666666666667' height = '243.18658280922432' hspace='5'><p>Press 1, 2 or 3.</p>","50","html-keyboard-response","136","563556","0.0-3.0-1.33","","temporalOrder","2","75"
"null","","null","html-keyboard-response","137","564072","0.0-3.0-2.33","","blank","",""
"2947","<img src= stimuli/temporalOrder/75.png width = '386.6666666666667' height = '243.18658280922432'><p>In which room was the object?</p><img src= stimuli/contextMemory/16.png width = '386.6666666666667' height = '243.18658280922432' hspace='5'><img src= stimuli/contextMemory/25.png width = '386.6666666666667' height = '243.18658280922432' hspace='5'><img src= stimuli/contextMemory/38.png width = '386.6666666666667' height = '243.18658280922432' hspace='5'><p>Press 1, 2 or 3.</p>","50","html-keyboard-response","138","567021","0.0-3.0-3.33","","contextMemory","3","75"
"null","<div style=""font-size:60px;"">+</div>","null","html-keyboard-response","139","567525","0.0-3.0-0.34","","fixation","",""
"17190","<img src= stimuli/temporalOrder/4.png width = '386.6666666666667' height = '243.18658280922432'><p>What came after this object?</p><img src= stimuli/temporalOrder/39.png width = '386.6666666666667' height = '243.18658280922432' hspace='5'><img src= stimuli/temporalOrder/28.png width = '386.6666666666667' height = '243.18658280922432' hspace='5'><img src= stimuli/temporalOrder/31.png width = '386.6666666666667' height = '243.18658280922432' hspace='5'><p>Press 1, 2 or 3.</p>","49","html-keyboard-response","140","584718","0.0-3.0-1.34","","temporalOrder","1","4"
"null","","null","html-keyboard-response","141","585220","0.0-3.0-2.34","","blank","",""
"2143","<img src= stimuli/temporalOrder/4.png width = '386.6666666666667' height = '243.18658280922432'><p>In which room was the object?</p><img src= stimuli/contextMemory/27.png width = '386.6666666666667' height = '243.18658280922432' hspace='5'><img src= stimuli/contextMemory/23.png width = '386.6666666666667' height = '243.18658280922432' hspace='5'><img src= stimuli/contextMemory/1.png width = '386.6666666666667' height = '243.18658280922432' hspace='5'><p>Press 1, 2 or 3.</p>","49","html-keyboard-response","142","587364","0.0-3.0-3.34","","contextMemory","3","4"
"null","<div style=""font-size:60px;"">+</div>","null","html-keyboard-response","143","587868","0.0-3.0-0.35","","fixation","",""
"3014","<img src= stimuli/temporalOrder/18.png width = '386.6666666666667' height = '243.18658280922432'><p>What came before this object?</p><img src= stimuli/temporalOrder/31.png width = '386.6666666666667' height = '243.18658280922432' hspace='5'><img src= stimuli/temporalOrder/40.png width = '386.6666666666667' height = '243.18658280922432' hspace='5'><img src= stimuli/temporalOrder/30.png width = '386.6666666666667' height = '243.18658280922432' hspace='5'><p>Press 1, 2 or 3.</p>","50","html-keyboard-response","144","590884","0.0-3.0-1.35","","temporalOrder","2","18"
"null","","null","html-keyboard-response","145","591396","0.0-3.0-2.35","","blank","",""
"2271","<img src= stimuli/temporalOrder/18.png width = '386.6666666666667' height = '243.18658280922432'><p>In which room was the object?</p><img src= stimuli/contextMemory/30.png width = '386.6666666666667' height = '243.18658280922432' hspace='5'><img src= stimuli/contextMemory/34.png width = '386.6666666666667' height = '243.18658280922432' hspace='5'><img src= stimuli/contextMemory/33.png width = '386.6666666666667' height = '243.18658280922432' hspace='5'><p>Press 1, 2 or 3.</p>","49","html-keyboard-response","146","593668","0.0-3.0-3.35","","contextMemory","1","18"
"null","<div style=""font-size:60px;"">+</div>","null","html-keyboard-response","147","594174","0.0-3.0-0.36","","fixation","",""
"8685","<img src= stimuli/temporalOrder/67.png width = '386.6666666666667' height = '243.18658280922432'><p>What came before this object?</p><img src= stimuli/temporalOrder/66.png width = '386.6666666666667' height = '243.18658280922432' hspace='5'><img src= stimuli/temporalOrder/1.png width = '386.6666666666667' height = '243.18658280922432' hspace='5'><img src= stimuli/temporalOrder/54.png width = '386.6666666666667' height = '243.18658280922432' hspace='5'><p>Press 1, 2 or 3.</p>","50","html-keyboard-response","148","602861","0.0-3.0-1.36","","temporalOrder","1","67"
"null","","null","html-keyboard-response","149","603361","0.0-3.0-2.36","","blank","",""
"2513","<img src= stimuli/temporalOrder/67.png width = '386.6666666666667' height = '243.18658280922432'><p>In which room was the object?</p><img src= stimuli/contextMemory/28.png width = '386.6666666666667' height = '243.18658280922432' hspace='5'><img src= stimuli/contextMemory/34.png width = '386.6666666666667' height = '243.18658280922432' hspace='5'><img src= stimuli/contextMemory/8.png width = '386.6666666666667' height = '243.18658280922432' hspace='5'><p>Press 1, 2 or 3.</p>","49","html-keyboard-response","150","605876","0.0-3.0-3.36","","contextMemory","2","67"
"null","<div style=""font-size:60px;"">+</div>","null","html-keyboard-response","151","606388","0.0-3.0-0.37","","fixation","",""
"8143","<img src= stimuli/temporalOrder/59.png width = '386.6666666666667' height = '243.18658280922432'><p>What came before this object?</p><img src= stimuli/temporalOrder/55.png width = '386.6666666666667' height = '243.18658280922432' hspace='5'><img src= stimuli/temporalOrder/57.png width = '386.6666666666667' height = '243.18658280922432' hspace='5'><img src= stimuli/temporalOrder/1.png width = '386.6666666666667' height = '243.18658280922432' hspace='5'><p>Press 1, 2 or 3.</p>","51","html-keyboard-response","152","614531","0.0-3.0-1.37","","temporalOrder","3","59"
"null","","null","html-keyboard-response","153","615035","0.0-3.0-2.37","","blank","",""
"12184","<img src= stimuli/temporalOrder/59.png width = '386.6666666666667' height = '243.18658280922432'><p>In which room was the object?</p><img src= stimuli/contextMemory/14.png width = '386.6666666666667' height = '243.18658280922432' hspace='5'><img src= stimuli/contextMemory/42.png width = '386.6666666666667' height = '243.18658280922432' hspace='5'><img src= stimuli/contextMemory/27.png width = '386.6666666666667' height = '243.18658280922432' hspace='5'><p>Press 1, 2 or 3.</p>","50","html-keyboard-response","154","627219","0.0-3.0-3.37","","contextMemory","3","59"
"null","<div style=""font-size:60px;"">+</div>","null","html-keyboard-response","155","627722","0.0-3.0-0.38","","fixation","",""
"3354","<img src= stimuli/temporalOrder/50.png width = '386.6666666666667' height = '243.18658280922432'><p>What came before this object?</p><img src= stimuli/temporalOrder/17.png width = '386.6666666666667' height = '243.18658280922432' hspace='5'><img src= stimuli/temporalOrder/56.png width = '386.6666666666667' height = '243.18658280922432' hspace='5'><img src= stimuli/temporalOrder/41.png width = '386.6666666666667' height = '243.18658280922432' hspace='5'><p>Press 1, 2 or 3.</p>","50","html-keyboard-response","156","631079","0.0-3.0-1.38","","temporalOrder","2","50"
"null","","null","html-keyboard-response","157","631587","0.0-3.0-2.38","","blank","",""
"1120","<img src= stimuli/temporalOrder/50.png width = '386.6666666666667' height = '243.18658280922432'><p>In which room was the object?</p><img src= stimuli/contextMemory/25.png width = '386.6666666666667' height = '243.18658280922432' hspace='5'><img src= stimuli/contextMemory/44.png width = '386.6666666666667' height = '243.18658280922432' hspace='5'><img src= stimuli/contextMemory/5.png width = '386.6666666666667' height = '243.18658280922432' hspace='5'><p>Press 1, 2 or 3.</p>","50","html-keyboard-response","158","632709","0.0-3.0-3.38","","contextMemory","1","50"
"null","<div style=""font-size:60px;"">+</div>","null","html-keyboard-response","159","633213","0.0-3.0-0.39","","fixation","",""
"8270","<img src= stimuli/temporalOrder/42.png width = '386.6666666666667' height = '243.18658280922432'><p>What came after this object?</p><img src= stimuli/temporalOrder/14.png width = '386.6666666666667' height = '243.18658280922432' hspace='5'><img src= stimuli/temporalOrder/78.png width = '386.6666666666667' height = '243.18658280922432' hspace='5'><img src= stimuli/temporalOrder/80.png width = '386.6666666666667' height = '243.18658280922432' hspace='5'><p>Press 1, 2 or 3.</p>","49","html-keyboard-response","160","641484","0.0-3.0-1.39","","temporalOrder","2","42"
"null","","null","html-keyboard-response","161","641988","0.0-3.0-2.39","","blank","",""
"2903","<img src= stimuli/temporalOrder/42.png width = '386.6666666666667' height = '243.18658280922432'><p>In which room was the object?</p><img src= stimuli/contextMemory/20.png width = '386.6666666666667' height = '243.18658280922432' hspace='5'><img src= stimuli/contextMemory/44.png width = '386.6666666666667' height = '243.18658280922432' hspace='5'><img src= stimuli/contextMemory/39.png width = '386.6666666666667' height = '243.18658280922432' hspace='5'><p>Press 1, 2 or 3.</p>","49","html-keyboard-response","162","644892","0.0-3.0-3.39","","contextMemory","2","42"
"null","<div style=""font-size:60px;"">+</div>","null","html-keyboard-response","163","645401","0.0-3.0-0.40","","fixation","",""
"14569","<img src= stimuli/temporalOrder/31.png width = '386.6666666666667' height = '243.18658280922432'><p>What came after this object?</p><img src= stimuli/temporalOrder/1.png width = '386.6666666666667' height = '243.18658280922432' hspace='5'><img src= stimuli/temporalOrder/26.png width = '386.6666666666667' height = '243.18658280922432' hspace='5'><img src= stimuli/temporalOrder/11.png width = '386.6666666666667' height = '243.18658280922432' hspace='5'><p>Press 1, 2 or 3.</p>","50","html-keyboard-response","164","659971","0.0-3.0-1.40","","temporalOrder","1","31"
"null","","null","html-keyboard-response","165","660477","0.0-3.0-2.40","","blank","",""
"2309","<img src= stimuli/temporalOrder/31.png width = '386.6666666666667' height = '243.18658280922432'><p>In which room was the object?</p><img src= stimuli/contextMemory/6.png width = '386.6666666666667' height = '243.18658280922432' hspace='5'><img src= stimuli/contextMemory/21.png width = '386.6666666666667' height = '243.18658280922432' hspace='5'><img src= stimuli/contextMemory/26.png width = '386.6666666666667' height = '243.18658280922432' hspace='5'><p>Press 1, 2 or 3.</p>","51","html-keyboard-response","166","662787","0.0-3.0-3.40","","contextMemory","3","31"
"null","<div style=""font-size:60px;"">+</div>","null","html-keyboard-response","167","663300","0.0-3.0-0.41","","fixation","",""
"3919","<img src= stimuli/temporalOrder/11.png width = '386.6666666666667' height = '243.18658280922432'><p>What came after this object?</p><img src= stimuli/temporalOrder/10.png width = '386.6666666666667' height = '243.18658280922432' hspace='5'><img src= stimuli/temporalOrder/80.png width = '386.6666666666667' height = '243.18658280922432' hspace='5'><img src= stimuli/temporalOrder/6.png width = '386.6666666666667' height = '243.18658280922432' hspace='5'><p>Press 1, 2 or 3.</p>","51","html-keyboard-response","168","667220","0.0-3.0-1.41","","temporalOrder","3","11"
"null","","null","html-keyboard-response","169","667730","0.0-3.0-2.41","","blank","",""
"3776","<img src= stimuli/temporalOrder/11.png width = '386.6666666666667' height = '243.18658280922432'><p>In which room was the object?</p><img src= stimuli/contextMemory/10.png width = '386.6666666666667' height = '243.18658280922432' hspace='5'><img src= stimuli/contextMemory/42.png width = '386.6666666666667' height = '243.18658280922432' hspace='5'><img src= stimuli/contextMemory/26.png width = '386.6666666666667' height = '243.18658280922432' hspace='5'><p>Press 1, 2 or 3.</p>","50","html-keyboard-response","170","671508","0.0-3.0-3.41","","contextMemory","2","11"
"null","<div style=""font-size:60px;"">+</div>","null","html-keyboard-response","171","672018","0.0-3.0-0.42","","fixation","",""
"8528","<img src= stimuli/temporalOrder/28.png width = '386.6666666666667' height = '243.18658280922432'><p>What came after this object?</p><img src= stimuli/temporalOrder/69.png width = '386.6666666666667' height = '243.18658280922432' hspace='5'><img src= stimuli/temporalOrder/33.png width = '386.6666666666667' height = '243.18658280922432' hspace='5'><img src= stimuli/temporalOrder/40.png width = '386.6666666666667' height = '243.18658280922432' hspace='5'><p>Press 1, 2 or 3.</p>","51","html-keyboard-response","172","680548","0.0-3.0-1.42","","temporalOrder","2","28"
"null","","null","html-keyboard-response","173","681053","0.0-3.0-2.42","","blank","",""
"2837","<img src= stimuli/temporalOrder/28.png width = '386.6666666666667' height = '243.18658280922432'><p>In which room was the object?</p><img src= stimuli/contextMemory/36.png width = '386.6666666666667' height = '243.18658280922432' hspace='5'><img src= stimuli/contextMemory/23.png width = '386.6666666666667' height = '243.18658280922432' hspace='5'><img src= stimuli/contextMemory/32.png width = '386.6666666666667' height = '243.18658280922432' hspace='5'><p>Press 1, 2 or 3.</p>","49","html-keyboard-response","174","683892","0.0-3.0-3.42","","contextMemory","2","28"
"null","<div style=""font-size:60px;"">+</div>","null","html-keyboard-response","175","684405","0.0-3.0-0.43","","fixation","",""
"8588","<img src= stimuli/temporalOrder/66.png width = '386.6666666666667' height = '243.18658280922432'><p>What came before this object?</p><img src= stimuli/temporalOrder/0.png width = '386.6666666666667' height = '243.18658280922432' hspace='5'><img src= stimuli/temporalOrder/68.png width = '386.6666666666667' height = '243.18658280922432' hspace='5'><img src= stimuli/temporalOrder/82.png width = '386.6666666666667' height = '243.18658280922432' hspace='5'><p>Press 1, 2 or 3.</p>","51","html-keyboard-response","176","692996","0.0-3.0-1.43","","temporalOrder","3","66"
"null","","null","html-keyboard-response","177","693496","0.0-3.0-2.43","","blank","",""
"2625","<img src= stimuli/temporalOrder/66.png width = '386.6666666666667' height = '243.18658280922432'><p>In which room was the object?</p><img src= stimuli/contextMemory/41.png width = '386.6666666666667' height = '243.18658280922432' hspace='5'><img src= stimuli/contextMemory/33.png width = '386.6666666666667' height = '243.18658280922432' hspace='5'><img src= stimuli/contextMemory/26.png width = '386.6666666666667' height = '243.18658280922432' hspace='5'><p>Press 1, 2 or 3.</p>","49","html-keyboard-response","178","696123","0.0-3.0-3.43","","contextMemory","2","66"
"null","<div style=""font-size:60px;"">+</div>","null","html-keyboard-response","179","696624","0.0-3.0-0.44","","fixation","",""
"4220","<img src= stimuli/temporalOrder/25.png width = '386.6666666666667' height = '243.18658280922432'><p>What came before this object?</p><img src= stimuli/temporalOrder/63.png width = '386.6666666666667' height = '243.18658280922432' hspace='5'><img src= stimuli/temporalOrder/60.png width = '386.6666666666667' height = '243.18658280922432' hspace='5'><img src= stimuli/temporalOrder/41.png width = '386.6666666666667' height = '243.18658280922432' hspace='5'><p>Press 1, 2 or 3.</p>","49","html-keyboard-response","180","700844","0.0-3.0-1.44","","temporalOrder","3","25"
"null","","null","html-keyboard-response","181","701348","0.0-3.0-2.44","","blank","",""
"5687","<img src= stimuli/temporalOrder/25.png width = '386.6666666666667' height = '243.18658280922432'><p>In which room was the object?</p><img src= stimuli/contextMemory/32.png width = '386.6666666666667' height = '243.18658280922432' hspace='5'><img src= stimuli/contextMemory/38.png width = '386.6666666666667' height = '243.18658280922432' hspace='5'><img src= stimuli/contextMemory/22.png width = '386.6666666666667' height = '243.18658280922432' hspace='5'><p>Press 1, 2 or 3.</p>","51","html-keyboard-response","182","707038","0.0-3.0-3.44","","contextMemory","1","25"
"null","<div style=""font-size:60px;"">+</div>","null","html-keyboard-response","183","707553","0.0-3.0-0.45","","fixation","",""
"5282","<img src= stimuli/temporalOrder/5.png width = '386.6666666666667' height = '243.18658280922432'><p>What came before this object?</p><img src= stimuli/temporalOrder/36.png width = '386.6666666666667' height = '243.18658280922432' hspace='5'><img src= stimuli/temporalOrder/14.png width = '386.6666666666667' height = '243.18658280922432' hspace='5'><img src= stimuli/temporalOrder/55.png width = '386.6666666666667' height = '243.18658280922432' hspace='5'><p>Press 1, 2 or 3.</p>","49","html-keyboard-response","184","712836","0.0-3.0-1.45","","temporalOrder","1","5"
"null","","null","html-keyboard-response","185","713344","0.0-3.0-2.45","","blank","",""
"2555","<img src= stimuli/temporalOrder/5.png width = '386.6666666666667' height = '243.18658280922432'><p>In which room was the object?</p><img src= stimuli/contextMemory/13.png width = '386.6666666666667' height = '243.18658280922432' hspace='5'><img src= stimuli/contextMemory/25.png width = '386.6666666666667' height = '243.18658280922432' hspace='5'><img src= stimuli/contextMemory/17.png width = '386.6666666666667' height = '243.18658280922432' hspace='5'><p>Press 1, 2 or 3.</p>","49","html-keyboard-response","186","715900","0.0-3.0-3.45","","contextMemory","3","5"
"null","<div style=""font-size:60px;"">+</div>","null","html-keyboard-response","187","716400","0.0-3.0-0.46","","fixation","",""
"14705","<img src= stimuli/temporalOrder/16.png width = '386.6666666666667' height = '243.18658280922432'><p>What came after this object?</p><img src= stimuli/temporalOrder/44.png width = '386.6666666666667' height = '243.18658280922432' hspace='5'><img src= stimuli/temporalOrder/23.png width = '386.6666666666667' height = '243.18658280922432' hspace='5'><img src= stimuli/temporalOrder/15.png width = '386.6666666666667' height = '243.18658280922432' hspace='5'><p>Press 1, 2 or 3.</p>","51","html-keyboard-response","188","731106","0.0-3.0-1.46","","temporalOrder","2","16"
"null","","null","html-keyboard-response","189","731610","0.0-3.0-2.46","","blank","",""
"937","<img src= stimuli/temporalOrder/16.png width = '386.6666666666667' height = '243.18658280922432'><p>In which room was the object?</p><img src= stimuli/contextMemory/35.png width = '386.6666666666667' height = '243.18658280922432' hspace='5'><img src= stimuli/contextMemory/4.png width = '386.6666666666667' height = '243.18658280922432' hspace='5'><img src= stimuli/contextMemory/39.png width = '386.6666666666667' height = '243.18658280922432' hspace='5'><p>Press 1, 2 or 3.</p>","49","html-keyboard-response","190","732547","0.0-3.0-3.46","","contextMemory","1","16"
"null","<div style=""font-size:60px;"">+</div>","null","html-keyboard-response","191","733051","0.0-3.0-0.47","","fixation","",""
"6830","<img src= stimuli/temporalOrder/72.png width = '386.6666666666667' height = '243.18658280922432'><p>What came before this object?</p><img src= stimuli/temporalOrder/50.png width = '386.6666666666667' height = '243.18658280922432' hspace='5'><img src= stimuli/temporalOrder/30.png width = '386.6666666666667' height = '243.18658280922432' hspace='5'><img src= stimuli/temporalOrder/54.png width = '386.6666666666667' height = '243.18658280922432' hspace='5'><p>Press 1, 2 or 3.</p>","51","html-keyboard-response","192","739882","0.0-3.0-1.47","","temporalOrder","2","72"
"null","","null","html-keyboard-response","193","740388","0.0-3.0-2.47","","blank","",""
"1878","<img src= stimuli/temporalOrder/72.png width = '386.6666666666667' height = '243.18658280922432'><p>In which room was the object?</p><img src= stimuli/contextMemory/37.png width = '386.6666666666667' height = '243.18658280922432' hspace='5'><img src= stimuli/contextMemory/15.png width = '386.6666666666667' height = '243.18658280922432' hspace='5'><img src= stimuli/contextMemory/4.png width = '386.6666666666667' height = '243.18658280922432' hspace='5'><p>Press 1, 2 or 3.</p>","50","html-keyboard-response","194","742267","0.0-3.0-3.47","","contextMemory","2","72"
"null","<div style=""font-size:60px;"">+</div>","null","html-keyboard-response","195","742778","0.0-3.0-0.48","","fixation","",""
"5670","<img src= stimuli/temporalOrder/69.png width = '386.6666666666667' height = '243.18658280922432'><p>What came after this object?</p><img src= stimuli/temporalOrder/81.png width = '386.6666666666667' height = '243.18658280922432' hspace='5'><img src= stimuli/temporalOrder/79.png width = '386.6666666666667' height = '243.18658280922432' hspace='5'><img src= stimuli/temporalOrder/75.png width = '386.6666666666667' height = '243.18658280922432' hspace='5'><p>Press 1, 2 or 3.</p>","49","html-keyboard-response","196","748450","0.0-3.0-1.48","","temporalOrder","1","69"
"null","","null","html-keyboard-response","197","748960","0.0-3.0-2.48","","blank","",""
"1211","<img src= stimuli/temporalOrder/69.png width = '386.6666666666667' height = '243.18658280922432'><p>In which room was the object?</p><img src= stimuli/contextMemory/5.png width = '386.6666666666667' height = '243.18658280922432' hspace='5'><img src= stimuli/contextMemory/2.png width = '386.6666666666667' height = '243.18658280922432' hspace='5'><img src= stimuli/contextMemory/32.png width = '386.6666666666667' height = '243.18658280922432' hspace='5'><p>Press 1, 2 or 3.</p>","50","html-keyboard-response","198","750172","0.0-3.0-3.48","","contextMemory","1","69"
"null","<div style=""font-size:60px;"">+</div>","null","html-keyboard-response","199","750673","0.0-3.0-0.49","","fixation","",""
"15495","<img src= stimuli/temporalOrder/24.png width = '386.6666666666667' height = '243.18658280922432'><p>What came after this object?</p><img src= stimuli/temporalOrder/13.png width = '386.6666666666667' height = '243.18658280922432' hspace='5'><img src= stimuli/temporalOrder/56.png width = '386.6666666666667' height = '243.18658280922432' hspace='5'><img src= stimuli/temporalOrder/22.png width = '386.6666666666667' height = '243.18658280922432' hspace='5'><p>Press 1, 2 or 3.</p>","49","html-keyboard-response","200","766170","0.0-3.0-1.49","","temporalOrder","2","24"
"null","","null","html-keyboard-response","201","766671","0.0-3.0-2.49","","blank","",""
"2291","<img src= stimuli/temporalOrder/24.png width = '386.6666666666667' height = '243.18658280922432'><p>In which room was the object?</p><img src= stimuli/contextMemory/12.png width = '386.6666666666667' height = '243.18658280922432' hspace='5'><img src= stimuli/contextMemory/43.png width = '386.6666666666667' height = '243.18658280922432' hspace='5'><img src= stimuli/contextMemory/24.png width = '386.6666666666667' height = '243.18658280922432' hspace='5'><p>Press 1, 2 or 3.</p>","49","html-keyboard-response","202","768964","0.0-3.0-3.49","","contextMemory","3","24"
"null","<div style=""font-size:60px;"">+</div>","null","html-keyboard-response","203","769464","0.0-3.0-0.50","","fixation","",""
"7514","<img src= stimuli/temporalOrder/57.png width = '386.6666666666667' height = '243.18658280922432'><p>What came after this object?</p><img src= stimuli/temporalOrder/25.png width = '386.6666666666667' height = '243.18658280922432' hspace='5'><img src= stimuli/temporalOrder/55.png width = '386.6666666666667' height = '243.18658280922432' hspace='5'><img src= stimuli/temporalOrder/39.png width = '386.6666666666667' height = '243.18658280922432' hspace='5'><p>Press 1, 2 or 3.</p>","49","html-keyboard-response","204","776979","0.0-3.0-1.50","","temporalOrder","2","57"
"null","","null","html-keyboard-response","205","777486","0.0-3.0-2.50","","blank","",""
"5139","<img src= stimuli/temporalOrder/57.png width = '386.6666666666667' height = '243.18658280922432'><p>In which room was the object?</p><img src= stimuli/contextMemory/9.png width = '386.6666666666667' height = '243.18658280922432' hspace='5'><img src= stimuli/contextMemory/36.png width = '386.6666666666667' height = '243.18658280922432' hspace='5'><img src= stimuli/contextMemory/39.png width = '386.6666666666667' height = '243.18658280922432' hspace='5'><p>Press 1, 2 or 3.</p>","49","html-keyboard-response","206","782626","0.0-3.0-3.50","","contextMemory","2","57"
"null","<div style=""font-size:60px;"">+</div>","null","html-keyboard-response","207","783141","0.0-3.0-0.51","","fixation","",""
"21670","<img src= stimuli/temporalOrder/56.png width = '386.6666666666667' height = '243.18658280922432'><p>What came after this object?</p><img src= stimuli/temporalOrder/84.png width = '386.6666666666667' height = '243.18658280922432' hspace='5'><img src= stimuli/temporalOrder/50.png width = '386.6666666666667' height = '243.18658280922432' hspace='5'><img src= stimuli/temporalOrder/39.png width = '386.6666666666667' height = '243.18658280922432' hspace='5'><p>Press 1, 2 or 3.</p>","50","html-keyboard-response","208","804812","0.0-3.0-1.51","","temporalOrder","2","56"
"null","","null","html-keyboard-response","209","805314","0.0-3.0-2.51","","blank","",""
"1079","<img src= stimuli/temporalOrder/56.png width = '386.6666666666667' height = '243.18658280922432'><p>In which room was the object?</p><img src= stimuli/contextMemory/42.png width = '386.6666666666667' height = '243.18658280922432' hspace='5'><img src= stimuli/contextMemory/25.png width = '386.6666666666667' height = '243.18658280922432' hspace='5'><img src= stimuli/contextMemory/30.png width = '386.6666666666667' height = '243.18658280922432' hspace='5'><p>Press 1, 2 or 3.</p>","49","html-keyboard-response","210","806394","0.0-3.0-3.51","","contextMemory","2","56"
"null","<div style=""font-size:60px;"">+</div>","null","html-keyboard-response","211","806908","0.0-3.0-0.52","","fixation","",""
"5603","<img src= stimuli/temporalOrder/29.png width = '386.6666666666667' height = '243.18658280922432'><p>What came after this object?</p><img src= stimuli/temporalOrder/80.png width = '386.6666666666667' height = '243.18658280922432' hspace='5'><img src= stimuli/temporalOrder/38.png width = '386.6666666666667' height = '243.18658280922432' hspace='5'><img src= stimuli/temporalOrder/45.png width = '386.6666666666667' height = '243.18658280922432' hspace='5'><p>Press 1, 2 or 3.</p>","49","html-keyboard-response","212","812514","0.0-3.0-1.52","","temporalOrder","1","29"
"null","","null","html-keyboard-response","213","813024","0.0-3.0-2.52","","blank","",""
"1329","<img src= stimuli/temporalOrder/29.png width = '386.6666666666667' height = '243.18658280922432'><p>In which room was the object?</p><img src= stimuli/contextMemory/26.png width = '386.6666666666667' height = '243.18658280922432' hspace='5'><img src= stimuli/contextMemory/19.png width = '386.6666666666667' height = '243.18658280922432' hspace='5'><img src= stimuli/contextMemory/21.png width = '386.6666666666667' height = '243.18658280922432' hspace='5'><p>Press 1, 2 or 3.</p>","49","html-keyboard-response","214","814355","0.0-3.0-3.52","","contextMemory","3","29"
"null","<div style=""font-size:60px;"">+</div>","null","html-keyboard-response","215","814856","0.0-3.0-0.53","","fixation","",""
"7440","<img src= stimuli/temporalOrder/6.png width = '386.6666666666667' height = '243.18658280922432'><p>What came after this object?</p><img src= stimuli/temporalOrder/38.png width = '386.6666666666667' height = '243.18658280922432' hspace='5'><img src= stimuli/temporalOrder/5.png width = '386.6666666666667' height = '243.18658280922432' hspace='5'><img src= stimuli/temporalOrder/47.png width = '386.6666666666667' height = '243.18658280922432' hspace='5'><p>Press 1, 2 or 3.</p>","50","html-keyboard-response","216","822299","0.0-3.0-1.53","","temporalOrder","1","6"
"null","","null","html-keyboard-response","217","822802","0.0-3.0-2.53","","blank","",""
"3191","<img src= stimuli/temporalOrder/6.png width = '386.6666666666667' height = '243.18658280922432'><p>In which room was the object?</p><img src= stimuli/contextMemory/30.png width = '386.6666666666667' height = '243.18658280922432' hspace='5'><img src= stimuli/contextMemory/36.png width = '386.6666666666667' height = '243.18658280922432' hspace='5'><img src= stimuli/contextMemory/43.png width = '386.6666666666667' height = '243.18658280922432' hspace='5'><p>Press 1, 2 or 3.</p>","49","html-keyboard-response","218","825995","0.0-3.0-3.53","","contextMemory","3","6"
"null","<div style=""font-size:60px;"">+</div>","null","html-keyboard-response","219","826510","0.0-3.0-0.54","","fixation","",""
"6642","<img src= stimuli/temporalOrder/7.png width = '386.6666666666667' height = '243.18658280922432'><p>What came before this object?</p><img src= stimuli/temporalOrder/87.png width = '386.6666666666667' height = '243.18658280922432' hspace='5'><img src= stimuli/temporalOrder/19.png width = '386.6666666666667' height = '243.18658280922432' hspace='5'><img src= stimuli/temporalOrder/85.png width = '386.6666666666667' height = '243.18658280922432' hspace='5'><p>Press 1, 2 or 3.</p>","49","html-keyboard-response","220","833154","0.0-3.0-1.54","","temporalOrder","2","7"
"null","","null","html-keyboard-response","221","833658","0.0-3.0-2.54","","blank","",""
"2734","<img src= stimuli/temporalOrder/7.png width = '386.6666666666667' height = '243.18658280922432'><p>In which room was the object?</p><img src= stimuli/contextMemory/34.png width = '386.6666666666667' height = '243.18658280922432' hspace='5'><img src= stimuli/contextMemory/40.png width = '386.6666666666667' height = '243.18658280922432' hspace='5'><img src= stimuli/contextMemory/41.png width = '386.6666666666667' height = '243.18658280922432' hspace='5'><p>Press 1, 2 or 3.</p>","51","html-keyboard-response","222","836394","0.0-3.0-3.54","","contextMemory","3","7"
"null","<div style=""font-size:60px;"">+</div>","null","html-keyboard-response","223","836906","0.0-3.0-0.55","","fixation","",""
"20689","<img src= stimuli/temporalOrder/14.png width = '386.6666666666667' height = '243.18658280922432'><p>What came before this object?</p><img src= stimuli/temporalOrder/40.png width = '386.6666666666667' height = '243.18658280922432' hspace='5'><img src= stimuli/temporalOrder/78.png width = '386.6666666666667' height = '243.18658280922432' hspace='5'><img src= stimuli/temporalOrder/54.png width = '386.6666666666667' height = '243.18658280922432' hspace='5'><p>Press 1, 2 or 3.</p>","51","html-keyboard-response","224","857595","0.0-3.0-1.55","","temporalOrder","3","14"
"null","","null","html-keyboard-response","225","858095","0.0-3.0-2.55","","blank","",""
"6550","<img src= stimuli/temporalOrder/14.png width = '386.6666666666667' height = '243.18658280922432'><p>In which room was the object?</p><img src= stimuli/contextMemory/39.png width = '386.6666666666667' height = '243.18658280922432' hspace='5'><img src= stimuli/contextMemory/19.png width = '386.6666666666667' height = '243.18658280922432' hspace='5'><img src= stimuli/contextMemory/9.png width = '386.6666666666667' height = '243.18658280922432' hspace='5'><p>Press 1, 2 or 3.</p>","49","html-keyboard-response","226","864647","0.0-3.0-3.55","","contextMemory","1","14"
"null","<div style=""font-size:60px;"">+</div>","null","html-keyboard-response","227","865157","0.0-3.0-0.56","","fixation","",""
"6530","<img src= stimuli/temporalOrder/33.png width = '386.6666666666667' height = '243.18658280922432'><p>What came after this object?</p><img src= stimuli/temporalOrder/63.png width = '386.6666666666667' height = '243.18658280922432' hspace='5'><img src= stimuli/temporalOrder/84.png width = '386.6666666666667' height = '243.18658280922432' hspace='5'><img src= stimuli/temporalOrder/24.png width = '386.6666666666667' height = '243.18658280922432' hspace='5'><p>Press 1, 2 or 3.</p>","51","html-keyboard-response","228","871687","0.0-3.0-1.56","","temporalOrder","3","33"
"null","","null","html-keyboard-response","229","872188","0.0-3.0-2.56","","blank","",""
"3933","<img src= stimuli/temporalOrder/33.png width = '386.6666666666667' height = '243.18658280922432'><p>In which room was the object?</p><img src= stimuli/contextMemory/44.png width = '386.6666666666667' height = '243.18658280922432' hspace='5'><img src= stimuli/contextMemory/24.png width = '386.6666666666667' height = '243.18658280922432' hspace='5'><img src= stimuli/contextMemory/4.png width = '386.6666666666667' height = '243.18658280922432' hspace='5'><p>Press 1, 2 or 3.</p>","49","html-keyboard-response","230","876121","0.0-3.0-3.56","","contextMemory","2","33"
"null","<div style=""font-size:60px;"">+</div>","null","html-keyboard-response","231","876632","0.0-3.0-0.57","","fixation","",""
"19042","<img src= stimuli/temporalOrder/70.png width = '386.6666666666667' height = '243.18658280922432'><p>What came before this object?</p><img src= stimuli/temporalOrder/50.png width = '386.6666666666667' height = '243.18658280922432' hspace='5'><img src= stimuli/temporalOrder/73.png width = '386.6666666666667' height = '243.18658280922432' hspace='5'><img src= stimuli/temporalOrder/71.png width = '386.6666666666667' height = '243.18658280922432' hspace='5'><p>Press 1, 2 or 3.</p>","50","html-keyboard-response","232","895674","0.0-3.0-1.57","","temporalOrder","3","70"
"null","","null","html-keyboard-response","233","896178","0.0-3.0-2.57","","blank","",""
"854","<img src= stimuli/temporalOrder/70.png width = '386.6666666666667' height = '243.18658280922432'><p>In which room was the object?</p><img src= stimuli/contextMemory/8.png width = '386.6666666666667' height = '243.18658280922432' hspace='5'><img src= stimuli/contextMemory/14.png width = '386.6666666666667' height = '243.18658280922432' hspace='5'><img src= stimuli/contextMemory/5.png width = '386.6666666666667' height = '243.18658280922432' hspace='5'><p>Press 1, 2 or 3.</p>","50","html-keyboard-response","234","897034","0.0-3.0-3.57","","contextMemory","3","70"
"null","<div style=""font-size:60px;"">+</div>","null","html-keyboard-response","235","897534","0.0-3.0-0.58","","fixation","",""
"7618","<img src= stimuli/temporalOrder/20.png width = '386.6666666666667' height = '243.18658280922432'><p>What came after this object?</p><img src= stimuli/temporalOrder/3.png width = '386.6666666666667' height = '243.18658280922432' hspace='5'><img src= stimuli/temporalOrder/10.png width = '386.6666666666667' height = '243.18658280922432' hspace='5'><img src= stimuli/temporalOrder/16.png width = '386.6666666666667' height = '243.18658280922432' hspace='5'><p>Press 1, 2 or 3.</p>","49","html-keyboard-response","236","905154","0.0-3.0-1.58","","temporalOrder","2","20"
"null","","null","html-keyboard-response","237","905654","0.0-3.0-2.58","","blank","",""
"1123","<img src= stimuli/temporalOrder/20.png width = '386.6666666666667' height = '243.18658280922432'><p>In which room was the object?</p><img src= stimuli/contextMemory/5.png width = '386.6666666666667' height = '243.18658280922432' hspace='5'><img src= stimuli/contextMemory/29.png width = '386.6666666666667' height = '243.18658280922432' hspace='5'><img src= stimuli/contextMemory/16.png width = '386.6666666666667' height = '243.18658280922432' hspace='5'><p>Press 1, 2 or 3.</p>","49","html-keyboard-response","238","906777","0.0-3.0-3.58","","contextMemory","2","20"
"null","<div style=""font-size:60px;"">+</div>","null","html-keyboard-response","239","907278","0.0-3.0-0.59","","fixation","",""
"17258","<img src= stimuli/temporalOrder/63.png width = '386.6666666666667' height = '243.18658280922432'><p>What came before this object?</p><img src= stimuli/temporalOrder/37.png width = '386.6666666666667' height = '243.18658280922432' hspace='5'><img src= stimuli/temporalOrder/12.png width = '386.6666666666667' height = '243.18658280922432' hspace='5'><img src= stimuli/temporalOrder/19.png width = '386.6666666666667' height = '243.18658280922432' hspace='5'><p>Press 1, 2 or 3.</p>","49","html-keyboard-response","240","924538","0.0-3.0-1.59","","temporalOrder","1","63"
"null","","null","html-keyboard-response","241","925040","0.0-3.0-2.59","","blank","",""
"2120","<img src= stimuli/temporalOrder/63.png width = '386.6666666666667' height = '243.18658280922432'><p>In which room was the object?</p><img src= stimuli/contextMemory/14.png width = '386.6666666666667' height = '243.18658280922432' hspace='5'><img src= stimuli/contextMemory/18.png width = '386.6666666666667' height = '243.18658280922432' hspace='5'><img src= stimuli/contextMemory/28.png width = '386.6666666666667' height = '243.18658280922432' hspace='5'><p>Press 1, 2 or 3.</p>","51","html-keyboard-response","242","927161","0.0-3.0-3.59","","contextMemory","2","63"
"null","<div style=""font-size:60px;"">+</div>","null","html-keyboard-response","243","927665","0.0-3.0-0.60","","fixation","",""
"8727","<img src= stimuli/temporalOrder/10.png width = '386.6666666666667' height = '243.18658280922432'><p>What came before this object?</p><img src= stimuli/temporalOrder/20.png width = '386.6666666666667' height = '243.18658280922432' hspace='5'><img src= stimuli/temporalOrder/62.png width = '386.6666666666667' height = '243.18658280922432' hspace='5'><img src= stimuli/temporalOrder/24.png width = '386.6666666666667' height = '243.18658280922432' hspace='5'><p>Press 1, 2 or 3.</p>","49","html-keyboard-response","244","936394","0.0-3.0-1.60","","temporalOrder","1","10"
"null","","null","html-keyboard-response","245","936909","0.0-3.0-2.60","","blank","",""
"2491","<img src= stimuli/temporalOrder/10.png width = '386.6666666666667' height = '243.18658280922432'><p>In which room was the object?</p><img src= stimuli/contextMemory/29.png width = '386.6666666666667' height = '243.18658280922432' hspace='5'><img src= stimuli/contextMemory/22.png width = '386.6666666666667' height = '243.18658280922432' hspace='5'><img src= stimuli/contextMemory/1.png width = '386.6666666666667' height = '243.18658280922432' hspace='5'><p>Press 1, 2 or 3.</p>","49","html-keyboard-response","246","939402","0.0-3.0-3.60","","contextMemory","1","10"
"null","<div style=""font-size:60px;"">+</div>","null","html-keyboard-response","247","939918","0.0-3.0-0.61","","fixation","",""
"9993","<img src= stimuli/temporalOrder/68.png width = '386.6666666666667' height = '243.18658280922432'><p>What came before this object?</p><img src= stimuli/temporalOrder/48.png width = '386.6666666666667' height = '243.18658280922432' hspace='5'><img src= stimuli/temporalOrder/28.png width = '386.6666666666667' height = '243.18658280922432' hspace='5'><img src= stimuli/temporalOrder/2.png width = '386.6666666666667' height = '243.18658280922432' hspace='5'><p>Press 1, 2 or 3.</p>","51","html-keyboard-response","248","949913","0.0-3.0-1.61","","temporalOrder","3","68"
"null","","null","html-keyboard-response","249","950426","0.0-3.0-2.61","","blank","",""
"2631","<img src= stimuli/temporalOrder/68.png width = '386.6666666666667' height = '243.18658280922432'><p>In which room was the object?</p><img src= stimuli/contextMemory/40.png width = '386.6666666666667' height = '243.18658280922432' hspace='5'><img src= stimuli/contextMemory/8.png width = '386.6666666666667' height = '243.18658280922432' hspace='5'><img src= stimuli/contextMemory/42.png width = '386.6666666666667' height = '243.18658280922432' hspace='5'><p>Press 1, 2 or 3.</p>","51","html-keyboard-response","250","953058","0.0-3.0-3.61","","contextMemory","1","68"
"null","<div style=""font-size:60px;"">+</div>","null","html-keyboard-response","251","953569","0.0-3.0-0.62","","fixation","",""
"7695","<img src= stimuli/temporalOrder/27.png width = '386.6666666666667' height = '243.18658280922432'><p>What came after this object?</p><img src= stimuli/temporalOrder/65.png width = '386.6666666666667' height = '243.18658280922432' hspace='5'><img src= stimuli/temporalOrder/42.png width = '386.6666666666667' height = '243.18658280922432' hspace='5'><img src= stimuli/temporalOrder/12.png width = '386.6666666666667' height = '243.18658280922432' hspace='5'><p>Press 1, 2 or 3.</p>","49","html-keyboard-response","252","961266","0.0-3.0-1.62","","temporalOrder","3","27"
"null","","null","html-keyboard-response","253","961778","0.0-3.0-2.62","","blank","",""
"2219","<img src= stimuli/temporalOrder/27.png width = '386.6666666666667' height = '243.18658280922432'><p>In which room was the object?</p><img src= stimuli/contextMemory/16.png width = '386.6666666666667' height = '243.18658280922432' hspace='5'><img src= stimuli/contextMemory/8.png width = '386.6666666666667' height = '243.18658280922432' hspace='5'><img src= stimuli/contextMemory/24.png width = '386.6666666666667' height = '243.18658280922432' hspace='5'><p>Press 1, 2 or 3.</p>","49","html-keyboard-response","254","964001","0.0-3.0-3.62","","contextMemory","2","27"
"null","<div style=""font-size:60px;"">+</div>","null","html-keyboard-response","255","964511","0.0-3.0-0.63","","fixation","",""
"5384","<img src= stimuli/temporalOrder/21.png width = '386.6666666666667' height = '243.18658280922432'><p>What came after this object?</p><img src= stimuli/temporalOrder/46.png width = '386.6666666666667' height = '243.18658280922432' hspace='5'><img src= stimuli/temporalOrder/75.png width = '386.6666666666667' height = '243.18658280922432' hspace='5'><img src= stimuli/temporalOrder/16.png width = '386.6666666666667' height = '243.18658280922432' hspace='5'><p>Press 1, 2 or 3.</p>","49","html-keyboard-response","256","969897","0.0-3.0-1.63","","temporalOrder","2","21"
"null","","null","html-keyboard-response","257","970407","0.0-3.0-2.63","","blank","",""
"10515","<img src= stimuli/temporalOrder/21.png width = '386.6666666666667' height = '243.18658280922432'><p>In which room was the object?</p><img src= stimuli/contextMemory/37.png width = '386.6666666666667' height = '243.18658280922432' hspace='5'><img src= stimuli/contextMemory/7.png width = '386.6666666666667' height = '243.18658280922432' hspace='5'><img src= stimuli/contextMemory/1.png width = '386.6666666666667' height = '243.18658280922432' hspace='5'><p>Press 1, 2 or 3.</p>","50","html-keyboard-response","258","980921","0.0-3.0-3.63","","contextMemory","1","21"
"null","<div style=""font-size:60px;"">+</div>","null","html-keyboard-response","259","981423","0.0-3.0-0.64","","fixation","",""
"4731","<img src= stimuli/temporalOrder/62.png width = '386.6666666666667' height = '243.18658280922432'><p>What came before this object?</p><img src= stimuli/temporalOrder/25.png width = '386.6666666666667' height = '243.18658280922432' hspace='5'><img src= stimuli/temporalOrder/33.png width = '386.6666666666667' height = '243.18658280922432' hspace='5'><img src= stimuli/temporalOrder/49.png width = '386.6666666666667' height = '243.18658280922432' hspace='5'><p>Press 1, 2 or 3.</p>","49","html-keyboard-response","260","986155","0.0-3.0-1.64","","temporalOrder","1","62"
"null","","null","html-keyboard-response","261","986658","0.0-3.0-2.64","","blank","",""
"4598","<img src= stimuli/temporalOrder/62.png width = '386.6666666666667' height = '243.18658280922432'><p>In which room was the object?</p><img src= stimuli/contextMemory/32.png width = '386.6666666666667' height = '243.18658280922432' hspace='5'><img src= stimuli/contextMemory/21.png width = '386.6666666666667' height = '243.18658280922432' hspace='5'><img src= stimuli/contextMemory/23.png width = '386.6666666666667' height = '243.18658280922432' hspace='5'><p>Press 1, 2 or 3.</p>","49","html-keyboard-response","262","991256","0.0-3.0-3.64","","contextMemory","1","62"
"null","<div style=""font-size:60px;"">+</div>","null","html-keyboard-response","263","991772","0.0-3.0-0.65","","fixation","",""
"3677","<img src= stimuli/temporalOrder/71.png width = '386.6666666666667' height = '243.18658280922432'><p>What came before this object?</p><img src= stimuli/temporalOrder/18.png width = '386.6666666666667' height = '243.18658280922432' hspace='5'><img src= stimuli/temporalOrder/44.png width = '386.6666666666667' height = '243.18658280922432' hspace='5'><img src= stimuli/temporalOrder/79.png width = '386.6666666666667' height = '243.18658280922432' hspace='5'><p>Press 1, 2 or 3.</p>","51","html-keyboard-response","264","995450","0.0-3.0-1.65","","temporalOrder","2","71"
"null","","null","html-keyboard-response","265","995953","0.0-3.0-2.65","","blank","",""
"663","<img src= stimuli/temporalOrder/71.png width = '386.6666666666667' height = '243.18658280922432'><p>In which room was the object?</p><img src= stimuli/contextMemory/4.png width = '386.6666666666667' height = '243.18658280922432' hspace='5'><img src= stimuli/contextMemory/14.png width = '386.6666666666667' height = '243.18658280922432' hspace='5'><img src= stimuli/contextMemory/40.png width = '386.6666666666667' height = '243.18658280922432' hspace='5'><p>Press 1, 2 or 3.</p>","51","html-keyboard-response","266","996618","0.0-3.0-3.65","","contextMemory","1","71"
"null","<div style=""font-size:60px;"">+</div>","null","html-keyboard-response","267","997119","0.0-3.0-0.66","","fixation","",""
"6313","<img src= stimuli/temporalOrder/19.png width = '386.6666666666667' height = '243.18658280922432'><p>What came before this object?</p><img src= stimuli/temporalOrder/13.png width = '386.6666666666667' height = '243.18658280922432' hspace='5'><img src= stimuli/temporalOrder/5.png width = '386.6666666666667' height = '243.18658280922432' hspace='5'><img src= stimuli/temporalOrder/4.png width = '386.6666666666667' height = '243.18658280922432' hspace='5'><p>Press 1, 2 or 3.</p>","51","html-keyboard-response","268","1003434","0.0-3.0-1.66","","temporalOrder","1","19"
"null","","null","html-keyboard-response","269","1003937","0.0-3.0-2.66","","blank","",""
"1085","<img src= stimuli/temporalOrder/19.png width = '386.6666666666667' height = '243.18658280922432'><p>In which room was the object?</p><img src= stimuli/contextMemory/41.png width = '386.6666666666667' height = '243.18658280922432' hspace='5'><img src= stimuli/contextMemory/23.png width = '386.6666666666667' height = '243.18658280922432' hspace='5'><img src= stimuli/contextMemory/11.png width = '386.6666666666667' height = '243.18658280922432' hspace='5'><p>Press 1, 2 or 3.</p>","49","html-keyboard-response","270","1005025","0.0-3.0-3.66","","contextMemory","1","19"
"null","<div style=""font-size:60px;"">+</div>","null","html-keyboard-response","271","1005536","0.0-3.0-0.67","","fixation","",""
"3055","<img src= stimuli/temporalOrder/40.png width = '386.6666666666667' height = '243.18658280922432'><p>What came after this object?</p><img src= stimuli/temporalOrder/71.png width = '386.6666666666667' height = '243.18658280922432' hspace='5'><img src= stimuli/temporalOrder/53.png width = '386.6666666666667' height = '243.18658280922432' hspace='5'><img src= stimuli/temporalOrder/18.png width = '386.6666666666667' height = '243.18658280922432' hspace='5'><p>Press 1, 2 or 3.</p>","51","html-keyboard-response","272","1008592","0.0-3.0-1.67","","temporalOrder","3","40"
"null","","null","html-keyboard-response","273","1009094","0.0-3.0-2.67","","blank","",""
"3667","<img src= stimuli/temporalOrder/40.png width = '386.6666666666667' height = '243.18658280922432'><p>In which room was the object?</p><img src= stimuli/contextMemory/30.png width = '386.6666666666667' height = '243.18658280922432' hspace='5'><img src= stimuli/contextMemory/36.png width = '386.6666666666667' height = '243.18658280922432' hspace='5'><img src= stimuli/contextMemory/19.png width = '386.6666666666667' height = '243.18658280922432' hspace='5'><p>Press 1, 2 or 3.</p>","49","html-keyboard-response","274","1012760","0.0-3.0-3.67","","contextMemory","1","40"
"null","<div style=""font-size:60px;"">+</div>","null","html-keyboard-response","275","1013272","0.0-3.0-0.68","","fixation","",""
"17504","<img src= stimuli/temporalOrder/52.png width = '386.6666666666667' height = '243.18658280922432'><p>What came after this object?</p><img src= stimuli/temporalOrder/30.png width = '386.6666666666667' height = '243.18658280922432' hspace='5'><img src= stimuli/temporalOrder/4.png width = '386.6666666666667' height = '243.18658280922432' hspace='5'><img src= stimuli/temporalOrder/78.png width = '386.6666666666667' height = '243.18658280922432' hspace='5'><p>Press 1, 2 or 3.</p>","49","html-keyboard-response","276","1030777","0.0-3.0-1.68","","temporalOrder","1","52"
"null","","null","html-keyboard-response","277","1031278","0.0-3.0-2.68","","blank","",""
"1344","<img src= stimuli/temporalOrder/52.png width = '386.6666666666667' height = '243.18658280922432'><p>In which room was the object?</p><img src= stimuli/contextMemory/7.png width = '386.6666666666667' height = '243.18658280922432' hspace='5'><img src= stimuli/contextMemory/14.png width = '386.6666666666667' height = '243.18658280922432' hspace='5'><img src= stimuli/contextMemory/1.png width = '386.6666666666667' height = '243.18658280922432' hspace='5'><p>Press 1, 2 or 3.</p>","49","html-keyboard-response","278","1032625","0.0-3.0-3.68","","contextMemory","2","52"
"null","<div style=""font-size:60px;"">+</div>","null","html-keyboard-response","279","1033139","0.0-3.0-0.69","","fixation","",""
"6909","<img src= stimuli/temporalOrder/86.png width = '386.6666666666667' height = '243.18658280922432'><p>What came before this object?</p><img src= stimuli/temporalOrder/46.png width = '386.6666666666667' height = '243.18658280922432' hspace='5'><img src= stimuli/temporalOrder/72.png width = '386.6666666666667' height = '243.18658280922432' hspace='5'><img src= stimuli/temporalOrder/66.png width = '386.6666666666667' height = '243.18658280922432' hspace='5'><p>Press 1, 2 or 3.</p>","51","html-keyboard-response","280","1040049","0.0-3.0-1.69","","temporalOrder","2","86"
"null","","null","html-keyboard-response","281","1040565","0.0-3.0-2.69","","blank","",""
"4805","<img src= stimuli/temporalOrder/86.png width = '386.6666666666667' height = '243.18658280922432'><p>In which room was the object?</p><img src= stimuli/contextMemory/31.png width = '386.6666666666667' height = '243.18658280922432' hspace='5'><img src= stimuli/contextMemory/15.png width = '386.6666666666667' height = '243.18658280922432' hspace='5'><img src= stimuli/contextMemory/29.png width = '386.6666666666667' height = '243.18658280922432' hspace='5'><p>Press 1, 2 or 3.</p>","49","html-keyboard-response","282","1045369","0.0-3.0-3.69","","contextMemory","2","86"
"null","<div style=""font-size:60px;"">+</div>","null","html-keyboard-response","283","1045882","0.0-3.0-0.70","","fixation","",""
"29405","<img src= stimuli/temporalOrder/34.png width = '386.6666666666667' height = '243.18658280922432'><p>What came after this object?</p><img src= stimuli/temporalOrder/16.png width = '386.6666666666667' height = '243.18658280922432' hspace='5'><img src= stimuli/temporalOrder/32.png width = '386.6666666666667' height = '243.18658280922432' hspace='5'><img src= stimuli/temporalOrder/59.png width = '386.6666666666667' height = '243.18658280922432' hspace='5'><p>Press 1, 2 or 3.</p>","49","html-keyboard-response","284","1075288","0.0-3.0-1.70","","temporalOrder","1","34"
"null","","null","html-keyboard-response","285","1075799","0.0-3.0-2.70","","blank","",""
"3681","<img src= stimuli/temporalOrder/34.png width = '386.6666666666667' height = '243.18658280922432'><p>In which room was the object?</p><img src= stimuli/contextMemory/38.png width = '386.6666666666667' height = '243.18658280922432' hspace='5'><img src= stimuli/contextMemory/18.png width = '386.6666666666667' height = '243.18658280922432' hspace='5'><img src= stimuli/contextMemory/35.png width = '386.6666666666667' height = '243.18658280922432' hspace='5'><p>Press 1, 2 or 3.</p>","51","html-keyboard-response","286","1079480","0.0-3.0-3.70","","contextMemory","3","34"
"null","<div style=""font-size:60px;"">+</div>","null","html-keyboard-response","287","1079984","0.0-3.0-0.71","","fixation","",""
"7153","<img src= stimuli/temporalOrder/58.png width = '386.6666666666667' height = '243.18658280922432'><p>What came before this object?</p><img src= stimuli/temporalOrder/39.png width = '386.6666666666667' height = '243.18658280922432' hspace='5'><img src= stimuli/temporalOrder/0.png width = '386.6666666666667' height = '243.18658280922432' hspace='5'><img src= stimuli/temporalOrder/68.png width = '386.6666666666667' height = '243.18658280922432' hspace='5'><p>Press 1, 2 or 3.</p>","50","html-keyboard-response","288","1087138","0.0-3.0-1.71","","temporalOrder","1","58"
"null","","null","html-keyboard-response","289","1087644","0.0-3.0-2.71","","blank","",""
