"rt","stimulus","key_press","trial_type","trial_index","time_elapsed","internal_node_id","test_part","worker_id","half","corr_resp","probe","target","foil1","dist1","foil1Pos","foil2","dist2","foil2Pos","subjCond","counterbalance_condition","question","roomNum","roomType","sameRoom","context","probeTable","foil1Table","foil2Table","imageSize"
"18816.084999998566","<div align=""center"" style='display: flex; flex-direction: column; margin: auto; flex: 1 1 100%; width: 90%; height: 90%;'><div style=""font-family: 'Open Sans', 'Arial', sans-serif; font-size: 150%; line-height: 1.5em;""><p style=""width: 90%; text-align: justify"">We will now present you with questions to test your memory for the objects presented in the film you just saw as explained. This is first of two memory tests  of this study. After finishing this test, you will watch another short video and then complete another memory test. The progress bar at the very top will show you how much of this block you already completed.<br><br>Press <strong>space</strong> for the next page.","32","html-keyboard-response","0","18819","0.0-0.0","","","","","","","","","","","","","","","","","","","","","","",""
"55176.03999999119","<div align=""center"" style='display: flex; flex-direction: column; margin: auto; flex: 1 1 100%; width: 90%; height: 90%;'><div style=""font-family: 'Open Sans', 'Arial', sans-serif; font-size: 150%; line-height: 1.5em;""><p style=""width: 90%; text-align: justify"">The question for the test is <i>`In the video you just watched, which one of the three objects at the bottom of the screen appeared <strong>immediately after</strong> this object?`</i>. On each trial, you see an image of an object in the middle of screen that you saw during the video along with three additional objects at the bottom of the screen. <br><br>Please indicate which of the three objects at the bottom <strong>immediately followed</strong> that object that is currently probed. The objects at the bottom are labelled 1, 2 and 3. To give your response, please press the respective key on your keyboard.<br><br>Note that it's not enough to just select the object that was presented any time point <strong>after</strong> the tested object. Please note that for each question there is only one correct answer.<br><br>Press <strong>space</strong> for the next page.","32","html-keyboard-response","1","75998","0.0-1.0","","","","","","","","","","","","","","","","","","","","","","",""
"12068.375000031665","<div align=""center"" style='display: flex; flex-direction: column; margin: auto; flex: 1 1 100%; width: 90%; height: 90%;'><div style=""font-family: 'Open Sans', 'Arial', sans-serif; font-size: 150%; line-height: 1.5em;""><p style=""width: 90%; text-align: justify"">Please try and give the correct answers to the best of your ability and guess if you do not remember. We are aware that this task is quite challenging but please continue to try to do your best until you have completed the experiment. Don't be discouraged if you feel that you don't remember the correct answers. <br><br>Press <strong>space</strong> to begin the task.","32","html-keyboard-response","2","90068","0.0-2.0","","","","","","","","","","","","","","","","","","","","","","",""
"null","<div style=""font-size:60px;"">+</div>","null","html-keyboard-response","3","92572","0.0-3.0-0.0","fixation","","","","","","","","","","","","","","","","","","","","","",""
"7768.06500001112","<p>In the video you just watched, which one of the three objects at the bottom of the screen appeared <strong>immediately after</strong> this object?</p><div class='grid'><img class='top' src='images/stimuli/81.png' style='width:287.2811387900356px;height: 222.99999999999997px;'><div class='threeColumn'><img src='images/stimuli/51.png' style='width:287.2811387900356px;height: 222.99999999999997px;'><div class='num'>1</div></div><div class='threeColumn'><img src='images/stimuli/4.png' style='width:287.2811387900356px;height: 222.99999999999997px;'><div class='num'>2</div></div><div class='threeColumn'><img src='images/stimuli/77.png' style='width:287.2811387900356px;height: 222.99999999999997px;'><div class='num'>3</div></div></div>","51","html-keyboard-response","4","100341","0.0-3.0-1.0","temporalOrder","15180","0","3","81","images/stimuli/77.png","images/stimuli/4.png","-9","2","images/stimuli/51.png","28","1","3","3","In the video you just watched, which one of the three objects at the bottom of the screen appeared <strong>immediately after</strong> this object?","6","o","0","across","3","2","3","0.26453143534994067"
"null","<div style=""font-size:60px;"">+</div>","null","html-keyboard-response","5","100844","0.0-3.0-0.1","fixation","","","","","","","","","","","","","","","","","","","","","",""
"3550.7050000014715","<p>In the video you just watched, which one of the three objects at the bottom of the screen appeared <strong>immediately after</strong> this object?</p><div class='grid'><img class='top' src='images/stimuli/12.png' style='width:287.2811387900356px;height: 222.99999999999997px;'><div class='threeColumn'><img src='images/stimuli/73.png' style='width:287.2811387900356px;height: 222.99999999999997px;'><div class='num'>1</div></div><div class='threeColumn'><img src='images/stimuli/37.png' style='width:287.2811387900356px;height: 222.99999999999997px;'><div class='num'>2</div></div><div class='threeColumn'><img src='images/stimuli/77.png' style='width:287.2811387900356px;height: 222.99999999999997px;'><div class='num'>3</div></div></div>","49","html-keyboard-response","6","104395","0.0-3.0-1.1","temporalOrder","15180","0","1","12","images/stimuli/73.png","images/stimuli/77.png","-4","3","images/stimuli/37.png","19","2","3","3","In the video you just watched, which one of the three objects at the bottom of the screen appeared <strong>immediately after</strong> this object?","9","o","1","within","2","2","3","0.26453143534994067"
"null","<div style=""font-size:60px;"">+</div>","null","html-keyboard-response","7","104896","0.0-3.0-0.2","fixation","","","","","","","","","","","","","","","","","","","","","",""
"6107.1000000229105","<p>In the video you just watched, which one of the three objects at the bottom of the screen appeared <strong>immediately after</strong> this object?</p><div class='grid'><img class='top' src='images/stimuli/8.png' style='width:287.2811387900356px;height: 222.99999999999997px;'><div class='threeColumn'><img src='images/stimuli/61.png' style='width:287.2811387900356px;height: 222.99999999999997px;'><div class='num'>1</div></div><div class='threeColumn'><img src='images/stimuli/30.png' style='width:287.2811387900356px;height: 222.99999999999997px;'><div class='num'>2</div></div><div class='threeColumn'><img src='images/stimuli/35.png' style='width:287.2811387900356px;height: 222.99999999999997px;'><div class='num'>3</div></div></div>","49","html-keyboard-response","8","111004","0.0-3.0-1.2","temporalOrder","15180","0","1","8","images/stimuli/61.png","images/stimuli/35.png","-14","3","images/stimuli/30.png","9","2","3","3","In the video you just watched, which one of the three objects at the bottom of the screen appeared <strong>immediately after</strong> this object?","10","o","0","across","3","3","2","0.26453143534994067"
"null","<div style=""font-size:60px;"">+</div>","null","html-keyboard-response","9","111505","0.0-3.0-0.3","fixation","","","","","","","","","","","","","","","","","","","","","",""
"5407.475000014529","<p>In the video you just watched, which one of the three objects at the bottom of the screen appeared <strong>immediately after</strong> this object?</p><div class='grid'><img class='top' src='images/stimuli/74.png' style='width:287.2811387900356px;height: 222.99999999999997px;'><div class='threeColumn'><img src='images/stimuli/44.png' style='width:287.2811387900356px;height: 222.99999999999997px;'><div class='num'>1</div></div><div class='threeColumn'><img src='images/stimuli/47.png' style='width:287.2811387900356px;height: 222.99999999999997px;'><div class='num'>2</div></div><div class='threeColumn'><img src='images/stimuli/73.png' style='width:287.2811387900356px;height: 222.99999999999997px;'><div class='num'>3</div></div></div>","50","html-keyboard-response","10","116913","0.0-3.0-1.3","temporalOrder","15180","0","1","74","images/stimuli/44.png","images/stimuli/47.png","-5","2","images/stimuli/73.png","11","3","3","3","In the video you just watched, which one of the three objects at the bottom of the screen appeared <strong>immediately after</strong> this object?","4","o","1","within","2","3","3","0.26453143534994067"
"null","<div style=""font-size:60px;"">+</div>","null","html-keyboard-response","11","117414","0.0-3.0-0.4","fixation","","","","","","","","","","","","","","","","","","","","","",""
"4993.755000003148","<p>In the video you just watched, which one of the three objects at the bottom of the screen appeared <strong>immediately after</strong> this object?</p><div class='grid'><img class='top' src='images/stimuli/30.png' style='width:287.2811387900356px;height: 222.99999999999997px;'><div class='threeColumn'><img src='images/stimuli/79.png' style='width:287.2811387900356px;height: 222.99999999999997px;'><div class='num'>1</div></div><div class='threeColumn'><img src='images/stimuli/72.png' style='width:287.2811387900356px;height: 222.99999999999997px;'><div class='num'>2</div></div><div class='threeColumn'><img src='images/stimuli/81.png' style='width:287.2811387900356px;height: 222.99999999999997px;'><div class='num'>3</div></div></div>","49","html-keyboard-response","12","122409","0.0-3.0-1.4","temporalOrder","15180","0","2","30","images/stimuli/72.png","images/stimuli/81.png","-17","3","images/stimuli/79.png","12","1","3","3","In the video you just watched, which one of the three objects at the bottom of the screen appeared <strong>immediately after</strong> this object?","15","o","1","within","2","3","2","0.26453143534994067"
"null","<div style=""font-size:60px;"">+</div>","null","html-keyboard-response","13","122910","0.0-3.0-0.5","fixation","","","","","","","","","","","","","","","","","","","","","",""
"7100.319999968633","<p>In the video you just watched, which one of the three objects at the bottom of the screen appeared <strong>immediately after</strong> this object?</p><div class='grid'><img class='top' src='images/stimuli/70.png' style='width:287.2811387900356px;height: 222.99999999999997px;'><div class='threeColumn'><img src='images/stimuli/72.png' style='width:287.2811387900356px;height: 222.99999999999997px;'><div class='num'>1</div></div><div class='threeColumn'><img src='images/stimuli/69.png' style='width:287.2811387900356px;height: 222.99999999999997px;'><div class='num'>2</div></div><div class='threeColumn'><img src='images/stimuli/39.png' style='width:287.2811387900356px;height: 222.99999999999997px;'><div class='num'>3</div></div></div>","50","html-keyboard-response","14","130011","0.0-3.0-1.5","temporalOrder","15180","0","2","70","images/stimuli/69.png","images/stimuli/39.png","-6","3","images/stimuli/72.png","20","1","3","3","In the video you just watched, which one of the three objects at the bottom of the screen appeared <strong>immediately after</strong> this object?","5","o","0","across","3","3","3","0.26453143534994067"
"null","<div style=""font-size:60px;"">+</div>","null","html-keyboard-response","15","130511","0.0-3.0-0.6","fixation","","","","","","","","","","","","","","","","","","","","","",""
"5100.049999949988","<p>In the video you just watched, which one of the three objects at the bottom of the screen appeared <strong>immediately after</strong> this object?</p><div class='grid'><img class='top' src='images/stimuli/84.png' style='width:287.2811387900356px;height: 222.99999999999997px;'><div class='threeColumn'><img src='images/stimuli/27.png' style='width:287.2811387900356px;height: 222.99999999999997px;'><div class='num'>1</div></div><div class='threeColumn'><img src='images/stimuli/37.png' style='width:287.2811387900356px;height: 222.99999999999997px;'><div class='num'>2</div></div><div class='threeColumn'><img src='images/stimuli/35.png' style='width:287.2811387900356px;height: 222.99999999999997px;'><div class='num'>3</div></div></div>","50","html-keyboard-response","16","135612","0.0-3.0-1.6","temporalOrder","15180","0","1","84","images/stimuli/27.png","images/stimuli/35.png","-9","3","images/stimuli/37.png","21","2","3","3","In the video you just watched, which one of the three objects at the bottom of the screen appeared <strong>immediately after</strong> this object?","8","o","1","within","2","3","3","0.26453143534994067"
"null","<div style=""font-size:60px;"">+</div>","null","html-keyboard-response","17","136114","0.0-3.0-0.7","fixation","","","","","","","","","","","","","","","","","","","","","",""
"34169.74500002107","<p>In the video you just watched, which one of the three objects at the bottom of the screen appeared <strong>immediately after</strong> this object?</p><div class='grid'><img class='top' src='images/stimuli/77.png' style='width:287.2811387900356px;height: 222.99999999999997px;'><div class='threeColumn'><img src='images/stimuli/46.png' style='width:287.2811387900356px;height: 222.99999999999997px;'><div class='num'>1</div></div><div class='threeColumn'><img src='images/stimuli/35.png' style='width:287.2811387900356px;height: 222.99999999999997px;'><div class='num'>2</div></div><div class='threeColumn'><img src='images/stimuli/22.png' style='width:287.2811387900356px;height: 222.99999999999997px;'><div class='num'>3</div></div></div>","51","html-keyboard-response","18","170284","0.0-3.0-1.7","temporalOrder","15180","0","3","77","images/stimuli/22.png","images/stimuli/35.png","-7","2","images/stimuli/46.png","9","1","3","3","In the video you just watched, which one of the three objects at the bottom of the screen appeared <strong>immediately after</strong> this object?","7","o","1","within","2","3","3","0.26453143534994067"
"null","<div style=""font-size:60px;"">+</div>","null","html-keyboard-response","19","170785","0.0-3.0-0.8","fixation","","","","","","","","","","","","","","","","","","","","","",""
"3405.689999985043","<p>In the video you just watched, which one of the three objects at the bottom of the screen appeared <strong>immediately after</strong> this object?</p><div class='grid'><img class='top' src='images/stimuli/53.png' style='width:287.2811387900356px;height: 222.99999999999997px;'><div class='threeColumn'><img src='images/stimuli/52.png' style='width:287.2811387900356px;height: 222.99999999999997px;'><div class='num'>1</div></div><div class='threeColumn'><img src='images/stimuli/71.png' style='width:287.2811387900356px;height: 222.99999999999997px;'><div class='num'>2</div></div><div class='threeColumn'><img src='images/stimuli/5.png' style='width:287.2811387900356px;height: 222.99999999999997px;'><div class='num'>3</div></div></div>","51","html-keyboard-response","20","174191","0.0-3.0-1.8","temporalOrder","15180","0","1","53","images/stimuli/52.png","images/stimuli/71.png","-18","2","images/stimuli/5.png","8","3","3","3","In the video you just watched, which one of the three objects at the bottom of the screen appeared <strong>immediately after</strong> this object?","14","o","1","within","2","2","2","0.26453143534994067"
"null","<div style=""font-size:60px;"">+</div>","null","html-keyboard-response","21","174694","0.0-3.0-0.9","fixation","","","","","","","","","","","","","","","","","","","","","",""
"5375.910000002477","<p>In the video you just watched, which one of the three objects at the bottom of the screen appeared <strong>immediately after</strong> this object?</p><div class='grid'><img class='top' src='images/stimuli/17.png' style='width:287.2811387900356px;height: 222.99999999999997px;'><div class='threeColumn'><img src='images/stimuli/63.png' style='width:287.2811387900356px;height: 222.99999999999997px;'><div class='num'>1</div></div><div class='threeColumn'><img src='images/stimuli/8.png' style='width:287.2811387900356px;height: 222.99999999999997px;'><div class='num'>2</div></div><div class='threeColumn'><img src='images/stimuli/36.png' style='width:287.2811387900356px;height: 222.99999999999997px;'><div class='num'>3</div></div></div>","51","html-keyboard-response","22","180070","0.0-3.0-1.9","temporalOrder","15180","0","3","17","images/stimuli/36.png","images/stimuli/8.png","-13","2","images/stimuli/63.png","4","1","3","3","In the video you just watched, which one of the three objects at the bottom of the screen appeared <strong>immediately after</strong> this object?","17","o","1","within","2","3","2","0.26453143534994067"
"null","<div style=""font-size:60px;"">+</div>","null","html-keyboard-response","23","180571","0.0-3.0-0.10","fixation","","","","","","","","","","","","","","","","","","","","","",""
"2514.789999986533","<p>In the video you just watched, which one of the three objects at the bottom of the screen appeared <strong>immediately after</strong> this object?</p><div class='grid'><img class='top' src='images/stimuli/29.png' style='width:287.2811387900356px;height: 222.99999999999997px;'><div class='threeColumn'><img src='images/stimuli/87.png' style='width:287.2811387900356px;height: 222.99999999999997px;'><div class='num'>1</div></div><div class='threeColumn'><img src='images/stimuli/58.png' style='width:287.2811387900356px;height: 222.99999999999997px;'><div class='num'>2</div></div><div class='threeColumn'><img src='images/stimuli/80.png' style='width:287.2811387900356px;height: 222.99999999999997px;'><div class='num'>3</div></div></div>","51","html-keyboard-response","24","183086","0.0-3.0-1.10","temporalOrder","15180","0","3","29","images/stimuli/80.png","images/stimuli/58.png","-37","2","images/stimuli/87.png","3","1","3","3","In the video you just watched, which one of the three objects at the bottom of the screen appeared <strong>immediately after</strong> this object?","21","o","0","across","3","2","2","0.26453143534994067"
"null","<div style=""font-size:60px;"">+</div>","null","html-keyboard-response","25","183587","0.0-3.0-0.11","fixation","","","","","","","","","","","","","","","","","","","","","",""
"2388.1599999731407","<p>In the video you just watched, which one of the three objects at the bottom of the screen appeared <strong>immediately after</strong> this object?</p><div class='grid'><img class='top' src='images/stimuli/51.png' style='width:287.2811387900356px;height: 222.99999999999997px;'><div class='threeColumn'><img src='images/stimuli/26.png' style='width:287.2811387900356px;height: 222.99999999999997px;'><div class='num'>1</div></div><div class='threeColumn'><img src='images/stimuli/72.png' style='width:287.2811387900356px;height: 222.99999999999997px;'><div class='num'>2</div></div><div class='threeColumn'><img src='images/stimuli/79.png' style='width:287.2811387900356px;height: 222.99999999999997px;'><div class='num'>3</div></div></div>","49","html-keyboard-response","26","185977","0.0-3.0-1.11","temporalOrder","15180","0","3","51","images/stimuli/79.png","images/stimuli/72.png","-10","2","images/stimuli/26.png","4","1","3","3","In the video you just watched, which one of the three objects at the bottom of the screen appeared <strong>immediately after</strong> this object?","20","o","0","across","3","3","3","0.26453143534994067"
"null","<div style=""font-size:60px;"">+</div>","null","html-keyboard-response","27","186478","0.0-3.0-0.12","fixation","","","","","","","","","","","","","","","","","","","","","",""
"3053.5650000092573","<p>In the video you just watched, which one of the three objects at the bottom of the screen appeared <strong>immediately after</strong> this object?</p><div class='grid'><img class='top' src='images/stimuli/36.png' style='width:287.2811387900356px;height: 222.99999999999997px;'><div class='threeColumn'><img src='images/stimuli/5.png' style='width:287.2811387900356px;height: 222.99999999999997px;'><div class='num'>1</div></div><div class='threeColumn'><img src='images/stimuli/26.png' style='width:287.2811387900356px;height: 222.99999999999997px;'><div class='num'>2</div></div><div class='threeColumn'><img src='images/stimuli/72.png' style='width:287.2811387900356px;height: 222.99999999999997px;'><div class='num'>3</div></div></div>","50","html-keyboard-response","28","189532","0.0-3.0-1.12","temporalOrder","15180","0","1","36","images/stimuli/5.png","images/stimuli/72.png","-4","3","images/stimuli/26.png","10","2","3","3","In the video you just watched, which one of the three objects at the bottom of the screen appeared <strong>immediately after</strong> this object?","17","o","0","across","3","3","3","0.26453143534994067"
"null","<div style=""font-size:60px;"">+</div>","null","html-keyboard-response","29","190034","0.0-3.0-0.13","fixation","","","","","","","","","","","","","","","","","","","","","",""
"3111.7649999796413","<p>In the video you just watched, which one of the three objects at the bottom of the screen appeared <strong>immediately after</strong> this object?</p><div class='grid'><img class='top' src='images/stimuli/83.png' style='width:287.2811387900356px;height: 222.99999999999997px;'><div class='threeColumn'><img src='images/stimuli/39.png' style='width:287.2811387900356px;height: 222.99999999999997px;'><div class='num'>1</div></div><div class='threeColumn'><img src='images/stimuli/79.png' style='width:287.2811387900356px;height: 222.99999999999997px;'><div class='num'>2</div></div><div class='threeColumn'><img src='images/stimuli/64.png' style='width:287.2811387900356px;height: 222.99999999999997px;'><div class='num'>3</div></div></div>","51","html-keyboard-response","30","193146","0.0-3.0-1.13","temporalOrder","15180","0","3","83","images/stimuli/64.png","images/stimuli/39.png","-21","1","images/stimuli/79.png","16","2","3","3","In the video you just watched, which one of the three objects at the bottom of the screen appeared <strong>immediately after</strong> this object?","13","o","1","within","2","3","2","0.26453143534994067"
"null","<div style=""font-size:60px;"">+</div>","null","html-keyboard-response","31","193648","0.0-3.0-0.14","fixation","","","","","","","","","","","","","","","","","","","","","",""
"1969.0299999783747","<p>In the video you just watched, which one of the three objects at the bottom of the screen appeared <strong>immediately after</strong> this object?</p><div class='grid'><img class='top' src='images/stimuli/58.png' style='width:287.2811387900356px;height: 222.99999999999997px;'><div class='threeColumn'><img src='images/stimuli/5.png' style='width:287.2811387900356px;height: 222.99999999999997px;'><div class='num'>1</div></div><div class='threeColumn'><img src='images/stimuli/47.png' style='width:287.2811387900356px;height: 222.99999999999997px;'><div class='num'>2</div></div><div class='threeColumn'><img src='images/stimuli/35.png' style='width:287.2811387900356px;height: 222.99999999999997px;'><div class='num'>3</div></div></div>","49","html-keyboard-response","32","195618","0.0-3.0-1.14","temporalOrder","15180","0","3","58","images/stimuli/35.png","images/stimuli/47.png","-3","2","images/stimuli/5.png","30","1","3","3","In the video you just watched, which one of the three objects at the bottom of the screen appeared <strong>immediately after</strong> this object?","3","o","1","within","2","3","2","0.26453143534994067"
"null","<div style=""font-size:60px;"">+</div>","null","html-keyboard-response","33","196119","0.0-3.0-0.15","fixation","","","","","","","","","","","","","","","","","","","","","",""
"2449.109999986831","<p>In the video you just watched, which one of the three objects at the bottom of the screen appeared <strong>immediately after</strong> this object?</p><div class='grid'><img class='top' src='images/stimuli/64.png' style='width:287.2811387900356px;height: 222.99999999999997px;'><div class='threeColumn'><img src='images/stimuli/86.png' style='width:287.2811387900356px;height: 222.99999999999997px;'><div class='num'>1</div></div><div class='threeColumn'><img src='images/stimuli/58.png' style='width:287.2811387900356px;height: 222.99999999999997px;'><div class='num'>2</div></div><div class='threeColumn'><img src='images/stimuli/53.png' style='width:287.2811387900356px;height: 222.99999999999997px;'><div class='num'>3</div></div></div>","49","html-keyboard-response","34","198569","0.0-3.0-1.15","temporalOrder","15180","0","3","64","images/stimuli/53.png","images/stimuli/58.png","-21","2","images/stimuli/86.png","5","1","3","3","In the video you just watched, which one of the three objects at the bottom of the screen appeared <strong>immediately after</strong> this object?","13","o","0","across","3","2","2","0.26453143534994067"
"null","<div style=""font-size:60px;"">+</div>","null","html-keyboard-response","35","199071","0.0-3.0-0.16","fixation","","","","","","","","","","","","","","","","","","","","","",""
"3430.8249999885447","<p>In the video you just watched, which one of the three objects at the bottom of the screen appeared <strong>immediately after</strong> this object?</p><div class='grid'><img class='top' src='images/stimuli/5.png' style='width:287.2811387900356px;height: 222.99999999999997px;'><div class='threeColumn'><img src='images/stimuli/65.png' style='width:287.2811387900356px;height: 222.99999999999997px;'><div class='num'>1</div></div><div class='threeColumn'><img src='images/stimuli/37.png' style='width:287.2811387900356px;height: 222.99999999999997px;'><div class='num'>2</div></div><div class='threeColumn'><img src='images/stimuli/76.png' style='width:287.2811387900356px;height: 222.99999999999997px;'><div class='num'>3</div></div></div>","51","html-keyboard-response","36","202503","0.0-3.0-1.16","temporalOrder","15180","0","2","5","images/stimuli/37.png","images/stimuli/65.png","-3","1","images/stimuli/76.png","4","3","3","3","In the video you just watched, which one of the three objects at the bottom of the screen appeared <strong>immediately after</strong> this object?","18","o","1","within","2","3","2","0.26453143534994067"
"null","<div style=""font-size:60px;"">+</div>","null","html-keyboard-response","37","203004","0.0-3.0-0.17","fixation","","","","","","","","","","","","","","","","","","","","","",""
"3252.764999982901","<p>In the video you just watched, which one of the three objects at the bottom of the screen appeared <strong>immediately after</strong> this object?</p><div class='grid'><img class='top' src='images/stimuli/69.png' style='width:287.2811387900356px;height: 222.99999999999997px;'><div class='threeColumn'><img src='images/stimuli/35.png' style='width:287.2811387900356px;height: 222.99999999999997px;'><div class='num'>1</div></div><div class='threeColumn'><img src='images/stimuli/81.png' style='width:287.2811387900356px;height: 222.99999999999997px;'><div class='num'>2</div></div><div class='threeColumn'><img src='images/stimuli/80.png' style='width:287.2811387900356px;height: 222.99999999999997px;'><div class='num'>3</div></div></div>","50","html-keyboard-response","38","206258","0.0-3.0-1.17","temporalOrder","15180","0","2","69","images/stimuli/81.png","images/stimuli/35.png","-5","1","images/stimuli/80.png","32","3","3","3","In the video you just watched, which one of the three objects at the bottom of the screen appeared <strong>immediately after</strong> this object?","6","o","1","within","2","3","2","0.26453143534994067"
"null","<div style=""font-size:60px;"">+</div>","null","html-keyboard-response","39","206760","0.0-3.0-0.18","fixation","","","","","","","","","","","","","","","","","","","","","",""
"1851.8650000332855","<p>In the video you just watched, which one of the three objects at the bottom of the screen appeared <strong>immediately after</strong> this object?</p><div class='grid'><img class='top' src='images/stimuli/73.png' style='width:287.2811387900356px;height: 222.99999999999997px;'><div class='threeColumn'><img src='images/stimuli/0.png' style='width:287.2811387900356px;height: 222.99999999999997px;'><div class='num'>1</div></div><div class='threeColumn'><img src='images/stimuli/53.png' style='width:287.2811387900356px;height: 222.99999999999997px;'><div class='num'>2</div></div><div class='threeColumn'><img src='images/stimuli/4.png' style='width:287.2811387900356px;height: 222.99999999999997px;'><div class='num'>3</div></div></div>","49","html-keyboard-response","40","208613","0.0-3.0-1.18","temporalOrder","15180","0","1","73","images/stimuli/0.png","images/stimuli/4.png","-15","3","images/stimuli/53.png","9","2","3","3","In the video you just watched, which one of the three objects at the bottom of the screen appeared <strong>immediately after</strong> this object?","9","o","0","across","3","2","2","0.26453143534994067"
"null","<div style=""font-size:60px;"">+</div>","null","html-keyboard-response","41","209114","0.0-3.0-0.19","fixation","","","","","","","","","","","","","","","","","","","","","",""
"2708.165000018198","<p>In the video you just watched, which one of the three objects at the bottom of the screen appeared <strong>immediately after</strong> this object?</p><div class='grid'><img class='top' src='images/stimuli/71.png' style='width:287.2811387900356px;height: 222.99999999999997px;'><div class='threeColumn'><img src='images/stimuli/72.png' style='width:287.2811387900356px;height: 222.99999999999997px;'><div class='num'>1</div></div><div class='threeColumn'><img src='images/stimuli/47.png' style='width:287.2811387900356px;height: 222.99999999999997px;'><div class='num'>2</div></div><div class='threeColumn'><img src='images/stimuli/70.png' style='width:287.2811387900356px;height: 222.99999999999997px;'><div class='num'>3</div></div></div>","49","html-keyboard-response","42","211823","0.0-3.0-1.19","temporalOrder","15180","0","3","71","images/stimuli/70.png","images/stimuli/47.png","-7","2","images/stimuli/72.png","21","1","3","3","In the video you just watched, which one of the three objects at the bottom of the screen appeared <strong>immediately after</strong> this object?","5","o","1","within","2","3","3","0.26453143534994067"
"null","<div style=""font-size:60px;"">+</div>","null","html-keyboard-response","43","212325","0.0-3.0-0.20","fixation","","","","","","","","","","","","","","","","","","","","","",""
"4977.529999974649","<p>In the video you just watched, which one of the three objects at the bottom of the screen appeared <strong>immediately after</strong> this object?</p><div class='grid'><img class='top' src='images/stimuli/76.png' style='width:287.2811387900356px;height: 222.99999999999997px;'><div class='threeColumn'><img src='images/stimuli/26.png' style='width:287.2811387900356px;height: 222.99999999999997px;'><div class='num'>1</div></div><div class='threeColumn'><img src='images/stimuli/64.png' style='width:287.2811387900356px;height: 222.99999999999997px;'><div class='num'>2</div></div><div class='threeColumn'><img src='images/stimuli/51.png' style='width:287.2811387900356px;height: 222.99999999999997px;'><div class='num'>3</div></div></div>","50","html-keyboard-response","44","217303","0.0-3.0-1.20","temporalOrder","15180","0","3","76","images/stimuli/51.png","images/stimuli/64.png","-13","2","images/stimuli/26.png","5","1","3","3","In the video you just watched, which one of the three objects at the bottom of the screen appeared <strong>immediately after</strong> this object?","20","o","1","within","2","3","3","0.26453143534994067"
"null","<div style=""font-size:60px;"">+</div>","null","html-keyboard-response","45","217805","0.0-3.0-0.21","fixation","","","","","","","","","","","","","","","","","","","","","",""
"2519.030000024941","<p>In the video you just watched, which one of the three objects at the bottom of the screen appeared <strong>immediately after</strong> this object?</p><div class='grid'><img class='top' src='images/stimuli/37.png' style='width:287.2811387900356px;height: 222.99999999999997px;'><div class='threeColumn'><img src='images/stimuli/63.png' style='width:287.2811387900356px;height: 222.99999999999997px;'><div class='num'>1</div></div><div class='threeColumn'><img src='images/stimuli/83.png' style='width:287.2811387900356px;height: 222.99999999999997px;'><div class='num'>2</div></div><div class='threeColumn'><img src='images/stimuli/51.png' style='width:287.2811387900356px;height: 222.99999999999997px;'><div class='num'>3</div></div></div>","51","html-keyboard-response","46","220325","0.0-3.0-1.21","temporalOrder","15180","0","1","37","images/stimuli/63.png","images/stimuli/83.png","-11","2","images/stimuli/51.png","4","3","3","3","In the video you just watched, which one of the three objects at the bottom of the screen appeared <strong>immediately after</strong> this object?","18","o","0","across","3","2","3","0.26453143534994067"
"null","<div style=""font-size:60px;"">+</div>","null","html-keyboard-response","47","220826","0.0-3.0-0.22","fixation","","","","","","","","","","","","","","","","","","","","","",""
"5182.1750000235625","<p>In the video you just watched, which one of the three objects at the bottom of the screen appeared <strong>immediately after</strong> this object?</p><div class='grid'><img class='top' src='images/stimuli/22.png' style='width:287.2811387900356px;height: 222.99999999999997px;'><div class='threeColumn'><img src='images/stimuli/70.png' style='width:287.2811387900356px;height: 222.99999999999997px;'><div class='num'>1</div></div><div class='threeColumn'><img src='images/stimuli/84.png' style='width:287.2811387900356px;height: 222.99999999999997px;'><div class='num'>2</div></div><div class='threeColumn'><img src='images/stimuli/51.png' style='width:287.2811387900356px;height: 222.99999999999997px;'><div class='num'>3</div></div></div>","49","html-keyboard-response","48","226010","0.0-3.0-1.22","temporalOrder","15180","0","2","22","images/stimuli/84.png","images/stimuli/70.png","-4","1","images/stimuli/51.png","26","3","3","3","In the video you just watched, which one of the three objects at the bottom of the screen appeared <strong>immediately after</strong> this object?","7","o","0","across","3","3","3","0.26453143534994067"
"null","<div style=""font-size:60px;"">+</div>","null","html-keyboard-response","49","226510","0.0-3.0-0.23","fixation","","","","","","","","","","","","","","","","","","","","","",""
"2253.6199999740347","<p>In the video you just watched, which one of the three objects at the bottom of the screen appeared <strong>immediately after</strong> this object?</p><div class='grid'><img class='top' src='images/stimuli/52.png' style='width:287.2811387900356px;height: 222.99999999999997px;'><div class='threeColumn'><img src='images/stimuli/43.png' style='width:287.2811387900356px;height: 222.99999999999997px;'><div class='num'>1</div></div><div class='threeColumn'><img src='images/stimuli/30.png' style='width:287.2811387900356px;height: 222.99999999999997px;'><div class='num'>2</div></div><div class='threeColumn'><img src='images/stimuli/37.png' style='width:287.2811387900356px;height: 222.99999999999997px;'><div class='num'>3</div></div></div>","49","html-keyboard-response","50","228765","0.0-3.0-1.23","temporalOrder","15180","0","2","52","images/stimuli/30.png","images/stimuli/43.png","-4","1","images/stimuli/37.png","8","3","3","3","In the video you just watched, which one of the three objects at the bottom of the screen appeared <strong>immediately after</strong> this object?","14","o","0","across","3","3","3","0.26453143534994067"
"null","<div style=""font-size:60px;"">+</div>","null","html-keyboard-response","51","229266","0.0-3.0-0.24","fixation","","","","","","","","","","","","","","","","","","","","","",""
"3180.5099999764934","<p>In the video you just watched, which one of the three objects at the bottom of the screen appeared <strong>immediately after</strong> this object?</p><div class='grid'><img class='top' src='images/stimuli/65.png' style='width:287.2811387900356px;height: 222.99999999999997px;'><div class='threeColumn'><img src='images/stimuli/80.png' style='width:287.2811387900356px;height: 222.99999999999997px;'><div class='num'>1</div></div><div class='threeColumn'><img src='images/stimuli/17.png' style='width:287.2811387900356px;height: 222.99999999999997px;'><div class='num'>2</div></div><div class='threeColumn'><img src='images/stimuli/69.png' style='width:287.2811387900356px;height: 222.99999999999997px;'><div class='num'>3</div></div></div>","49","html-keyboard-response","52","232447","0.0-3.0-1.24","temporalOrder","15180","0","2","65","images/stimuli/17.png","images/stimuli/69.png","-21","3","images/stimuli/80.png","11","1","3","3","In the video you just watched, which one of the three objects at the bottom of the screen appeared <strong>immediately after</strong> this object?","16","o","0","across","3","2","2","0.26453143534994067"
"null","<div style=""font-size:60px;"">+</div>","null","html-keyboard-response","53","232950","0.0-3.0-0.25","fixation","","","","","","","","","","","","","","","","","","","","","",""
"3377.8049999964423","<p>In the video you just watched, which one of the three objects at the bottom of the screen appeared <strong>immediately after</strong> this object?</p><div class='grid'><img class='top' src='images/stimuli/32.png' style='width:287.2811387900356px;height: 222.99999999999997px;'><div class='threeColumn'><img src='images/stimuli/86.png' style='width:287.2811387900356px;height: 222.99999999999997px;'><div class='num'>1</div></div><div class='threeColumn'><img src='images/stimuli/81.png' style='width:287.2811387900356px;height: 222.99999999999997px;'><div class='num'>2</div></div><div class='threeColumn'><img src='images/stimuli/43.png' style='width:287.2811387900356px;height: 222.99999999999997px;'><div class='num'>3</div></div></div>","49","html-keyboard-response","54","236329","0.0-3.0-1.25","temporalOrder","15180","0","3","32","images/stimuli/43.png","images/stimuli/81.png","-11","2","images/stimuli/86.png","8","1","3","3","In the video you just watched, which one of the three objects at the bottom of the screen appeared <strong>immediately after</strong> this object?","12","o","1","within","2","3","2","0.26453143534994067"
"null","<div style=""font-size:60px;"">+</div>","null","html-keyboard-response","55","236831","0.0-3.0-0.26","fixation","","","","","","","","","","","","","","","","","","","","","",""
"1686.2650000257418","<p>In the video you just watched, which one of the three objects at the bottom of the screen appeared <strong>immediately after</strong> this object?</p><div class='grid'><img class='top' src='images/stimuli/63.png' style='width:287.2811387900356px;height: 222.99999999999997px;'><div class='threeColumn'><img src='images/stimuli/80.png' style='width:287.2811387900356px;height: 222.99999999999997px;'><div class='num'>1</div></div><div class='threeColumn'><img src='images/stimuli/15.png' style='width:287.2811387900356px;height: 222.99999999999997px;'><div class='num'>2</div></div><div class='threeColumn'><img src='images/stimuli/47.png' style='width:287.2811387900356px;height: 222.99999999999997px;'><div class='num'>3</div></div></div>","50","html-keyboard-response","56","238518","0.0-3.0-1.26","temporalOrder","15180","0","2","63","images/stimuli/15.png","images/stimuli/47.png","-35","3","images/stimuli/80.png","6","1","3","3","In the video you just watched, which one of the three objects at the bottom of the screen appeared <strong>immediately after</strong> this object?","19","o","1","within","2","3","2","0.26453143534994067"
"null","<div style=""font-size:60px;"">+</div>","null","html-keyboard-response","57","239019","0.0-3.0-0.27","fixation","","","","","","","","","","","","","","","","","","","","","",""
"1906.090000004042","<p>In the video you just watched, which one of the three objects at the bottom of the screen appeared <strong>immediately after</strong> this object?</p><div class='grid'><img class='top' src='images/stimuli/43.png' style='width:287.2811387900356px;height: 222.99999999999997px;'><div class='threeColumn'><img src='images/stimuli/86.png' style='width:287.2811387900356px;height: 222.99999999999997px;'><div class='num'>1</div></div><div class='threeColumn'><img src='images/stimuli/83.png' style='width:287.2811387900356px;height: 222.99999999999997px;'><div class='num'>2</div></div><div class='threeColumn'><img src='images/stimuli/0.png' style='width:287.2811387900356px;height: 222.99999999999997px;'><div class='num'>3</div></div></div>","50","html-keyboard-response","58","240926","0.0-3.0-1.27","temporalOrder","15180","0","2","43","images/stimuli/83.png","images/stimuli/0.png","-5","3","images/stimuli/86.png","7","1","3","3","In the video you just watched, which one of the three objects at the bottom of the screen appeared <strong>immediately after</strong> this object?","12","o","0","across","3","2","2","0.26453143534994067"
"null","<div style=""font-size:60px;"">+</div>","null","html-keyboard-response","59","241427","0.0-3.0-0.28","fixation","","","","","","","","","","","","","","","","","","","","","",""
"5000.439999974333","<p>In the video you just watched, which one of the three objects at the bottom of the screen appeared <strong>immediately after</strong> this object?</p><div class='grid'><img class='top' src='images/stimuli/61.png' style='width:287.2811387900356px;height: 222.99999999999997px;'><div class='threeColumn'><img src='images/stimuli/15.png' style='width:287.2811387900356px;height: 222.99999999999997px;'><div class='num'>1</div></div><div class='threeColumn'><img src='images/stimuli/46.png' style='width:287.2811387900356px;height: 222.99999999999997px;'><div class='num'>2</div></div><div class='threeColumn'><img src='images/stimuli/44.png' style='width:287.2811387900356px;height: 222.99999999999997px;'><div class='num'>3</div></div></div>","49","html-keyboard-response","60","246428","0.0-3.0-1.28","temporalOrder","15180","0","2","61","images/stimuli/46.png","images/stimuli/44.png","-13","3","images/stimuli/15.png","17","1","3","3","In the video you just watched, which one of the three objects at the bottom of the screen appeared <strong>immediately after</strong> this object?","11","o","1","within","2","3","3","0.26453143534994067"
"null","<div style=""font-size:60px;"">+</div>","null","html-keyboard-response","61","246931","0.0-3.0-0.29","fixation","","","","","","","","","","","","","","","","","","","","","",""
"1401.56000002753","<p>In the video you just watched, which one of the three objects at the bottom of the screen appeared <strong>immediately after</strong> this object?</p><div class='grid'><img class='top' src='images/stimuli/44.png' style='width:287.2811387900356px;height: 222.99999999999997px;'><div class='threeColumn'><img src='images/stimuli/53.png' style='width:287.2811387900356px;height: 222.99999999999997px;'><div class='num'>1</div></div><div class='threeColumn'><img src='images/stimuli/71.png' style='width:287.2811387900356px;height: 222.99999999999997px;'><div class='num'>2</div></div><div class='threeColumn'><img src='images/stimuli/39.png' style='width:287.2811387900356px;height: 222.99999999999997px;'><div class='num'>3</div></div></div>","51","html-keyboard-response","62","248333","0.0-3.0-1.29","temporalOrder","15180","0","2","44","images/stimuli/71.png","images/stimuli/39.png","-4","3","images/stimuli/53.png","19","1","3","3","In the video you just watched, which one of the three objects at the bottom of the screen appeared <strong>immediately after</strong> this object?","4","o","0","across","3","3","2","0.26453143534994067"
"null","<div style=""font-size:60px;"">+</div>","null","html-keyboard-response","63","248835","0.0-3.0-0.30","fixation","","","","","","","","","","","","","","","","","","","","","",""
"2499.199999962002","<p>In the video you just watched, which one of the three objects at the bottom of the screen appeared <strong>immediately after</strong> this object?</p><div class='grid'><img class='top' src='images/stimuli/15.png' style='width:287.2811387900356px;height: 222.99999999999997px;'><div class='threeColumn'><img src='images/stimuli/76.png' style='width:287.2811387900356px;height: 222.99999999999997px;'><div class='num'>1</div></div><div class='threeColumn'><img src='images/stimuli/80.png' style='width:287.2811387900356px;height: 222.99999999999997px;'><div class='num'>2</div></div><div class='threeColumn'><img src='images/stimuli/77.png' style='width:287.2811387900356px;height: 222.99999999999997px;'><div class='num'>3</div></div></div>","51","html-keyboard-response","64","251335","0.0-3.0-1.30","temporalOrder","15180","0","1","15","images/stimuli/76.png","images/stimuli/77.png","-25","3","images/stimuli/80.png","5","2","3","3","In the video you just watched, which one of the three objects at the bottom of the screen appeared <strong>immediately after</strong> this object?","19","o","0","across","3","2","2","0.26453143534994067"
"null","<div style=""font-size:60px;"">+</div>","null","html-keyboard-response","65","251836","0.0-3.0-0.31","fixation","","","","","","","","","","","","","","","","","","","","","",""
"1716.4249999914318","<p>In the video you just watched, which one of the three objects at the bottom of the screen appeared <strong>immediately after</strong> this object?</p><div class='grid'><img class='top' src='images/stimuli/86.png' style='width:287.2811387900356px;height: 222.99999999999997px;'><div class='threeColumn'><img src='images/stimuli/80.png' style='width:287.2811387900356px;height: 222.99999999999997px;'><div class='num'>1</div></div><div class='threeColumn'><img src='images/stimuli/65.png' style='width:287.2811387900356px;height: 222.99999999999997px;'><div class='num'>2</div></div><div class='threeColumn'><img src='images/stimuli/71.png' style='width:287.2811387900356px;height: 222.99999999999997px;'><div class='num'>3</div></div></div>","50","html-keyboard-response","66","253553","0.0-3.0-1.31","temporalOrder","15180","0","2","86","images/stimuli/65.png","images/stimuli/71.png","-22","3","images/stimuli/80.png","12","1","3","3","In the video you just watched, which one of the three objects at the bottom of the screen appeared <strong>immediately after</strong> this object?","16","o","1","within","2","2","2","0.26453143534994067"
"null","<div style=""font-size:60px;"">+</div>","null","html-keyboard-response","67","254054","0.0-3.0-0.32","fixation","","","","","","","","","","","","","","","","","","","","","",""
"2029.195000010077","<p>In the video you just watched, which one of the three objects at the bottom of the screen appeared <strong>immediately after</strong> this object?</p><div class='grid'><img class='top' src='images/stimuli/72.png' style='width:287.2811387900356px;height: 222.99999999999997px;'><div class='threeColumn'><img src='images/stimuli/51.png' style='width:287.2811387900356px;height: 222.99999999999997px;'><div class='num'>1</div></div><div class='threeColumn'><img src='images/stimuli/32.png' style='width:287.2811387900356px;height: 222.99999999999997px;'><div class='num'>2</div></div><div class='threeColumn'><img src='images/stimuli/86.png' style='width:287.2811387900356px;height: 222.99999999999997px;'><div class='num'>3</div></div></div>","51","html-keyboard-response","68","256085","0.0-3.0-1.32","temporalOrder","15180","0","3","72","images/stimuli/86.png","images/stimuli/32.png","-7","2","images/stimuli/51.png","10","1","3","3","In the video you just watched, which one of the three objects at the bottom of the screen appeared <strong>immediately after</strong> this object?","15","o","0","across","3","2","3","0.26453143534994067"
"null","<div style=""font-size:60px;"">+</div>","null","html-keyboard-response","69","256586","0.0-3.0-0.33","fixation","","","","","","","","","","","","","","","","","","","","","",""
"3178.2249999814667","<p>In the video you just watched, which one of the three objects at the bottom of the screen appeared <strong>immediately after</strong> this object?</p><div class='grid'><img class='top' src='images/stimuli/79.png' style='width:287.2811387900356px;height: 222.99999999999997px;'><div class='threeColumn'><img src='images/stimuli/0.png' style='width:287.2811387900356px;height: 222.99999999999997px;'><div class='num'>1</div></div><div class='threeColumn'><img src='images/stimuli/29.png' style='width:287.2811387900356px;height: 222.99999999999997px;'><div class='num'>2</div></div><div class='threeColumn'><img src='images/stimuli/87.png' style='width:287.2811387900356px;height: 222.99999999999997px;'><div class='num'>3</div></div></div>","49","html-keyboard-response","70","259765","0.0-3.0-1.33","temporalOrder","15180","0","2","79","images/stimuli/29.png","images/stimuli/0.png","-22","1","images/stimuli/87.png","4","3","3","3","In the video you just watched, which one of the three objects at the bottom of the screen appeared <strong>immediately after</strong> this object?","21","o","1","within","2","2","2","0.26453143534994067"
"null","<div style=""font-size:60px;"">+</div>","null","html-keyboard-response","71","260266","0.0-3.0-0.34","fixation","","","","","","","","","","","","","","","","","","","","","",""
"2410.7700000167824","<p>In the video you just watched, which one of the three objects at the bottom of the screen appeared <strong>immediately after</strong> this object?</p><div class='grid'><img class='top' src='images/stimuli/46.png' style='width:287.2811387900356px;height: 222.99999999999997px;'><div class='threeColumn'><img src='images/stimuli/44.png' style='width:287.2811387900356px;height: 222.99999999999997px;'><div class='num'>1</div></div><div class='threeColumn'><img src='images/stimuli/83.png' style='width:287.2811387900356px;height: 222.99999999999997px;'><div class='num'>2</div></div><div class='threeColumn'><img src='images/stimuli/32.png' style='width:287.2811387900356px;height: 222.99999999999997px;'><div class='num'>3</div></div></div>","49","html-keyboard-response","72","262678","0.0-3.0-1.34","temporalOrder","15180","0","3","46","images/stimuli/32.png","images/stimuli/44.png","-14","1","images/stimuli/83.png","3","2","3","3","In the video you just watched, which one of the three objects at the bottom of the screen appeared <strong>immediately after</strong> this object?","11","o","0","across","3","3","2","0.26453143534994067"
"null","<div style=""font-size:60px;"">+</div>","null","html-keyboard-response","73","263180","0.0-3.0-0.35","fixation","","","","","","","","","","","","","","","","","","","","","",""
"2338.220000034198","<p>In the video you just watched, which one of the three objects at the bottom of the screen appeared <strong>immediately after</strong> this object?</p><div class='grid'><img class='top' src='images/stimuli/0.png' style='width:287.2811387900356px;height: 222.99999999999997px;'><div class='threeColumn'><img src='images/stimuli/8.png' style='width:287.2811387900356px;height: 222.99999999999997px;'><div class='num'>1</div></div><div class='threeColumn'><img src='images/stimuli/71.png' style='width:287.2811387900356px;height: 222.99999999999997px;'><div class='num'>2</div></div><div class='threeColumn'><img src='images/stimuli/86.png' style='width:287.2811387900356px;height: 222.99999999999997px;'><div class='num'>3</div></div></div>","50","html-keyboard-response","74","265520","0.0-3.0-1.35","temporalOrder","15180","0","1","0","images/stimuli/8.png","images/stimuli/71.png","-10","2","images/stimuli/86.png","12","3","3","3","In the video you just watched, which one of the three objects at the bottom of the screen appeared <strong>immediately after</strong> this object?","10","o","1","within","2","2","2","0.26453143534994067"
"null","<div style=""font-size:60px;"">+</div>","null","html-keyboard-response","75","266021","0.0-3.0-0.36","fixation","","","","","","","","","","","","","","","","","","","","","",""
"1079.8549999599345","<p>In the video you just watched, which one of the three objects at the bottom of the screen appeared <strong>immediately after</strong> this object?</p><div class='grid'><img class='top' src='images/stimuli/35.png' style='width:287.2811387900356px;height: 222.99999999999997px;'><div class='threeColumn'><img src='images/stimuli/15.png' style='width:287.2811387900356px;height: 222.99999999999997px;'><div class='num'>1</div></div><div class='threeColumn'><img src='images/stimuli/74.png' style='width:287.2811387900356px;height: 222.99999999999997px;'><div class='num'>2</div></div><div class='threeColumn'><img src='images/stimuli/47.png' style='width:287.2811387900356px;height: 222.99999999999997px;'><div class='num'>3</div></div></div>","49","html-keyboard-response","76","267101","0.0-3.0-1.36","temporalOrder","15180","0","2","35","images/stimuli/74.png","images/stimuli/47.png","-4","3","images/stimuli/15.png","32","1","3","3","In the video you just watched, which one of the three objects at the bottom of the screen appeared <strong>immediately after</strong> this object?","3","o","0","across","3","3","3","0.26453143534994067"
"null","<div style=""font-size:60px;"">+</div>","null","html-keyboard-response","77","267602","0.0-3.0-0.37","fixation","","","","","","","","","","","","","","","","","","","","","",""
"1254.3599999626167","<p>In the video you just watched, which one of the three objects at the bottom of the screen appeared <strong>immediately after</strong> this object?</p><div class='grid'><img class='top' src='images/stimuli/27.png' style='width:287.2811387900356px;height: 222.99999999999997px;'><div class='threeColumn'><img src='images/stimuli/81.png' style='width:287.2811387900356px;height: 222.99999999999997px;'><div class='num'>1</div></div><div class='threeColumn'><img src='images/stimuli/12.png' style='width:287.2811387900356px;height: 222.99999999999997px;'><div class='num'>2</div></div><div class='threeColumn'><img src='images/stimuli/76.png' style='width:287.2811387900356px;height: 222.99999999999997px;'><div class='num'>3</div></div></div>","50","html-keyboard-response","78","268857","0.0-3.0-1.37","temporalOrder","15180","0","2","27","images/stimuli/12.png","images/stimuli/81.png","-4","1","images/stimuli/76.png","23","3","3","3","In the video you just watched, which one of the three objects at the bottom of the screen appeared <strong>immediately after</strong> this object?","8","o","0","across","3","3","2","0.26453143534994067"
"1805.0700000021607","<p>Press space to continue the experiment.</p>","32","html-keyboard-response","79","270663","0.0-4.0","","","","","","","","","","","","","","","","","","","","","","",""
