"rt","stimulus","key_press","trial_type","trial_index","time_elapsed","internal_node_id","success","test_part","correct_response","probe"
"565627","<p>Thank you for participating in this experiment.</p><p>At first, you will watch a video, in which you see a series of objects in a series of rooms.</p><p>Try to remember that sequence and try to remember the rooms an object was in. </p><p>To start the experiment, please watch the following video: <a href='https://youtu.be/PKNqyqvctJg' target='_blank'>https://youtu.be/PKNqyqvctJg</a><p>Please enable the full screen mode while watching the video and use the highest resolution.</p><p>Press <strong>space</strong> to continue after watching the video.</p>","32","html-keyboard-response","0","565631","0.0-0.0","","","",""
"","","","fullscreen","1","572072","0.0-1.0","true","","",""
"16032","<p>After you have watched the video, you will now complete a memory task.</p><br><br><p>On each trial, you need to answer two questions. For both questions you have to</p><p>to choose the correct image from three alternatives by pressing 1, 2 or 3 from top of the keyboard.</p><p>For the first question, you need to decide which object was either before or after the object presented</p><p>at the top. This is relative to the sequence of objects you saw in the video. For the second question, </p><p>you need to decide in which room the object was. In order to do this, you need to base</p><p>this on the <strong>wall colour</strong> and the <strong>carpet</strong>.</p><br><p>Press <strong>space</strong> to begin.</p>","32","html-keyboard-response","2","588106","0.0-2.0","","","",""
"null","<div style=""font-size:60px;"">+</div>","null","html-keyboard-response","3","590609","0.0-3.0-0.0","","fixation","",""
"6994","<img src= stimuli/temporalOrder/43.png width = '400' height = '251.57232704402514'><p>What came before this object?</p><img src= stimuli/temporalOrder/9.png width = '400' height = '251.57232704402514' hspace='5'><img src= stimuli/temporalOrder/8.png width = '400' height = '251.57232704402514' hspace='5'><img src= stimuli/temporalOrder/32.png width = '400' height = '251.57232704402514' hspace='5'><p>Press 1, 2 or 3.</p>","50","html-keyboard-response","4","597611","0.0-3.0-1.0","","temporalOrder","3","43"
"null","","null","html-keyboard-response","5","598112","0.0-3.0-2.0","","blank","",""
"5188","<img src= stimuli/temporalOrder/43.png width = '400' height = '251.57232704402514'><p>In which room was the object?</p><img src= stimuli/contextMemory/29.png width = '400' height = '251.57232704402514' hspace='5'><img src= stimuli/contextMemory/33.png width = '400' height = '251.57232704402514' hspace='5'><img src= stimuli/contextMemory/12.png width = '400' height = '251.57232704402514' hspace='5'><p>Press 1, 2 or 3.</p>","49","html-keyboard-response","6","603306","0.0-3.0-3.0","","contextMemory","3","43"
"null","<div style=""font-size:60px;"">+</div>","null","html-keyboard-response","7","603810","0.0-3.0-0.1","","fixation","",""
"8210","<img src= stimuli/temporalOrder/8.png width = '400' height = '251.57232704402514'><p>What came after this object?</p><img src= stimuli/temporalOrder/12.png width = '400' height = '251.57232704402514' hspace='5'><img src= stimuli/temporalOrder/74.png width = '400' height = '251.57232704402514' hspace='5'><img src= stimuli/temporalOrder/61.png width = '400' height = '251.57232704402514' hspace='5'><p>Press 1, 2 or 3.</p>","50","html-keyboard-response","8","612025","0.0-3.0-1.1","","temporalOrder","3","8"
"null","","null","html-keyboard-response","9","612527","0.0-3.0-2.1","","blank","",""
"3366","<img src= stimuli/temporalOrder/8.png width = '400' height = '251.57232704402514'><p>In which room was the object?</p><img src= stimuli/contextMemory/32.png width = '400' height = '251.57232704402514' hspace='5'><img src= stimuli/contextMemory/10.png width = '400' height = '251.57232704402514' hspace='5'><img src= stimuli/contextMemory/20.png width = '400' height = '251.57232704402514' hspace='5'><p>Press 1, 2 or 3.</p>","50","html-keyboard-response","10","615897","0.0-3.0-3.1","","contextMemory","2","8"
"null","<div style=""font-size:60px;"">+</div>","null","html-keyboard-response","11","616398","0.0-3.0-0.2","","fixation","",""
"5496","<img src= stimuli/temporalOrder/57.png width = '400' height = '251.57232704402514'><p>What came after this object?</p><img src= stimuli/temporalOrder/25.png width = '400' height = '251.57232704402514' hspace='5'><img src= stimuli/temporalOrder/55.png width = '400' height = '251.57232704402514' hspace='5'><img src= stimuli/temporalOrder/39.png width = '400' height = '251.57232704402514' hspace='5'><p>Press 1, 2 or 3.</p>","50","html-keyboard-response","12","621898","0.0-3.0-1.2","","temporalOrder","2","57"
"null","","null","html-keyboard-response","13","622400","0.0-3.0-2.2","","blank","",""
"2864","<img src= stimuli/temporalOrder/57.png width = '400' height = '251.57232704402514'><p>In which room was the object?</p><img src= stimuli/contextMemory/9.png width = '400' height = '251.57232704402514' hspace='5'><img src= stimuli/contextMemory/36.png width = '400' height = '251.57232704402514' hspace='5'><img src= stimuli/contextMemory/39.png width = '400' height = '251.57232704402514' hspace='5'><p>Press 1, 2 or 3.</p>","49","html-keyboard-response","14","625272","0.0-3.0-3.2","","contextMemory","2","57"
"null","<div style=""font-size:60px;"">+</div>","null","html-keyboard-response","15","625773","0.0-3.0-0.3","","fixation","",""
"5256","<img src= stimuli/temporalOrder/75.png width = '400' height = '251.57232704402514'><p>What came after this object?</p><img src= stimuli/temporalOrder/56.png width = '400' height = '251.57232704402514' hspace='5'><img src= stimuli/temporalOrder/54.png width = '400' height = '251.57232704402514' hspace='5'><img src= stimuli/temporalOrder/43.png width = '400' height = '251.57232704402514' hspace='5'><p>Press 1, 2 or 3.</p>","49","html-keyboard-response","16","631034","0.0-3.0-1.3","","temporalOrder","2","75"
"null","","null","html-keyboard-response","17","631537","0.0-3.0-2.3","","blank","",""
"2496","<img src= stimuli/temporalOrder/75.png width = '400' height = '251.57232704402514'><p>In which room was the object?</p><img src= stimuli/contextMemory/16.png width = '400' height = '251.57232704402514' hspace='5'><img src= stimuli/contextMemory/25.png width = '400' height = '251.57232704402514' hspace='5'><img src= stimuli/contextMemory/38.png width = '400' height = '251.57232704402514' hspace='5'><p>Press 1, 2 or 3.</p>","50","html-keyboard-response","18","634042","0.0-3.0-3.3","","contextMemory","3","75"
"null","<div style=""font-size:60px;"">+</div>","null","html-keyboard-response","19","634545","0.0-3.0-0.4","","fixation","",""
"3519","<img src= stimuli/temporalOrder/40.png width = '400' height = '251.57232704402514'><p>What came after this object?</p><img src= stimuli/temporalOrder/71.png width = '400' height = '251.57232704402514' hspace='5'><img src= stimuli/temporalOrder/53.png width = '400' height = '251.57232704402514' hspace='5'><img src= stimuli/temporalOrder/18.png width = '400' height = '251.57232704402514' hspace='5'><p>Press 1, 2 or 3.</p>","49","html-keyboard-response","20","638074","0.0-3.0-1.4","","temporalOrder","3","40"
"null","","null","html-keyboard-response","21","638575","0.0-3.0-2.4","","blank","",""
"2677","<img src= stimuli/temporalOrder/40.png width = '400' height = '251.57232704402514'><p>In which room was the object?</p><img src= stimuli/contextMemory/30.png width = '400' height = '251.57232704402514' hspace='5'><img src= stimuli/contextMemory/36.png width = '400' height = '251.57232704402514' hspace='5'><img src= stimuli/contextMemory/19.png width = '400' height = '251.57232704402514' hspace='5'><p>Press 1, 2 or 3.</p>","49","html-keyboard-response","22","641256","0.0-3.0-3.4","","contextMemory","1","40"
"null","<div style=""font-size:60px;"">+</div>","null","html-keyboard-response","23","641757","0.0-3.0-0.5","","fixation","",""
"5383","<img src= stimuli/temporalOrder/10.png width = '400' height = '251.57232704402514'><p>What came before this object?</p><img src= stimuli/temporalOrder/20.png width = '400' height = '251.57232704402514' hspace='5'><img src= stimuli/temporalOrder/62.png width = '400' height = '251.57232704402514' hspace='5'><img src= stimuli/temporalOrder/24.png width = '400' height = '251.57232704402514' hspace='5'><p>Press 1, 2 or 3.</p>","49","html-keyboard-response","24","647146","0.0-3.0-1.5","","temporalOrder","1","10"
"null","","null","html-keyboard-response","25","647646","0.0-3.0-2.5","","blank","",""
"1588","<img src= stimuli/temporalOrder/10.png width = '400' height = '251.57232704402514'><p>In which room was the object?</p><img src= stimuli/contextMemory/29.png width = '400' height = '251.57232704402514' hspace='5'><img src= stimuli/contextMemory/22.png width = '400' height = '251.57232704402514' hspace='5'><img src= stimuli/contextMemory/1.png width = '400' height = '251.57232704402514' hspace='5'><p>Press 1, 2 or 3.</p>","49","html-keyboard-response","26","649240","0.0-3.0-3.5","","contextMemory","1","10"
"null","<div style=""font-size:60px;"">+</div>","null","html-keyboard-response","27","649742","0.0-3.0-0.6","","fixation","",""
"4355","<img src= stimuli/temporalOrder/33.png width = '400' height = '251.57232704402514'><p>What came after this object?</p><img src= stimuli/temporalOrder/63.png width = '400' height = '251.57232704402514' hspace='5'><img src= stimuli/temporalOrder/84.png width = '400' height = '251.57232704402514' hspace='5'><img src= stimuli/temporalOrder/24.png width = '400' height = '251.57232704402514' hspace='5'><p>Press 1, 2 or 3.</p>","50","html-keyboard-response","28","654104","0.0-3.0-1.6","","temporalOrder","3","33"
"null","","null","html-keyboard-response","29","654607","0.0-3.0-2.6","","blank","",""
"1763","<img src= stimuli/temporalOrder/33.png width = '400' height = '251.57232704402514'><p>In which room was the object?</p><img src= stimuli/contextMemory/44.png width = '400' height = '251.57232704402514' hspace='5'><img src= stimuli/contextMemory/24.png width = '400' height = '251.57232704402514' hspace='5'><img src= stimuli/contextMemory/4.png width = '400' height = '251.57232704402514' hspace='5'><p>Press 1, 2 or 3.</p>","50","html-keyboard-response","30","656375","0.0-3.0-3.6","","contextMemory","2","33"
"null","<div style=""font-size:60px;"">+</div>","null","html-keyboard-response","31","656876","0.0-3.0-0.7","","fixation","",""
"2598","<img src= stimuli/temporalOrder/19.png width = '400' height = '251.57232704402514'><p>What came before this object?</p><img src= stimuli/temporalOrder/13.png width = '400' height = '251.57232704402514' hspace='5'><img src= stimuli/temporalOrder/5.png width = '400' height = '251.57232704402514' hspace='5'><img src= stimuli/temporalOrder/4.png width = '400' height = '251.57232704402514' hspace='5'><p>Press 1, 2 or 3.</p>","49","html-keyboard-response","32","659481","0.0-3.0-1.7","","temporalOrder","1","19"
"null","","null","html-keyboard-response","33","659982","0.0-3.0-2.7","","blank","",""
"932","<img src= stimuli/temporalOrder/19.png width = '400' height = '251.57232704402514'><p>In which room was the object?</p><img src= stimuli/contextMemory/41.png width = '400' height = '251.57232704402514' hspace='5'><img src= stimuli/contextMemory/23.png width = '400' height = '251.57232704402514' hspace='5'><img src= stimuli/contextMemory/11.png width = '400' height = '251.57232704402514' hspace='5'><p>Press 1, 2 or 3.</p>","51","html-keyboard-response","34","660919","0.0-3.0-3.7","","contextMemory","1","19"
"null","<div style=""font-size:60px;"">+</div>","null","html-keyboard-response","35","661421","0.0-3.0-0.8","","fixation","",""
"3063","<img src= stimuli/temporalOrder/28.png width = '400' height = '251.57232704402514'><p>What came after this object?</p><img src= stimuli/temporalOrder/69.png width = '400' height = '251.57232704402514' hspace='5'><img src= stimuli/temporalOrder/33.png width = '400' height = '251.57232704402514' hspace='5'><img src= stimuli/temporalOrder/40.png width = '400' height = '251.57232704402514' hspace='5'><p>Press 1, 2 or 3.</p>","51","html-keyboard-response","36","664486","0.0-3.0-1.8","","temporalOrder","2","28"
"null","","null","html-keyboard-response","37","664986","0.0-3.0-2.8","","blank","",""
"1034","<img src= stimuli/temporalOrder/28.png width = '400' height = '251.57232704402514'><p>In which room was the object?</p><img src= stimuli/contextMemory/36.png width = '400' height = '251.57232704402514' hspace='5'><img src= stimuli/contextMemory/23.png width = '400' height = '251.57232704402514' hspace='5'><img src= stimuli/contextMemory/32.png width = '400' height = '251.57232704402514' hspace='5'><p>Press 1, 2 or 3.</p>","51","html-keyboard-response","38","666023","0.0-3.0-3.8","","contextMemory","2","28"
"null","<div style=""font-size:60px;"">+</div>","null","html-keyboard-response","39","666526","0.0-3.0-0.9","","fixation","",""
"4097","<img src= stimuli/temporalOrder/64.png width = '400' height = '251.57232704402514'><p>What came before this object?</p><img src= stimuli/temporalOrder/29.png width = '400' height = '251.57232704402514' hspace='5'><img src= stimuli/temporalOrder/83.png width = '400' height = '251.57232704402514' hspace='5'><img src= stimuli/temporalOrder/32.png width = '400' height = '251.57232704402514' hspace='5'><p>Press 1, 2 or 3.</p>","49","html-keyboard-response","40","670634","0.0-3.0-1.9","","temporalOrder","2","64"
"null","","null","html-keyboard-response","41","671136","0.0-3.0-2.9","","blank","",""
"897","<img src= stimuli/temporalOrder/64.png width = '400' height = '251.57232704402514'><p>In which room was the object?</p><img src= stimuli/contextMemory/13.png width = '400' height = '251.57232704402514' hspace='5'><img src= stimuli/contextMemory/29.png width = '400' height = '251.57232704402514' hspace='5'><img src= stimuli/contextMemory/28.png width = '400' height = '251.57232704402514' hspace='5'><p>Press 1, 2 or 3.</p>","49","html-keyboard-response","42","672040","0.0-3.0-3.9","","contextMemory","1","64"
"null","<div style=""font-size:60px;"">+</div>","null","html-keyboard-response","43","672541","0.0-3.0-0.10","","fixation","",""
"3570","<img src= stimuli/temporalOrder/4.png width = '400' height = '251.57232704402514'><p>What came after this object?</p><img src= stimuli/temporalOrder/39.png width = '400' height = '251.57232704402514' hspace='5'><img src= stimuli/temporalOrder/28.png width = '400' height = '251.57232704402514' hspace='5'><img src= stimuli/temporalOrder/31.png width = '400' height = '251.57232704402514' hspace='5'><p>Press 1, 2 or 3.</p>","49","html-keyboard-response","44","676119","0.0-3.0-1.10","","temporalOrder","1","4"
"null","","null","html-keyboard-response","45","676621","0.0-3.0-2.10","","blank","",""
"823","<img src= stimuli/temporalOrder/4.png width = '400' height = '251.57232704402514'><p>In which room was the object?</p><img src= stimuli/contextMemory/27.png width = '400' height = '251.57232704402514' hspace='5'><img src= stimuli/contextMemory/23.png width = '400' height = '251.57232704402514' hspace='5'><img src= stimuli/contextMemory/1.png width = '400' height = '251.57232704402514' hspace='5'><p>Press 1, 2 or 3.</p>","50","html-keyboard-response","46","677446","0.0-3.0-3.10","","contextMemory","3","4"
"null","<div style=""font-size:60px;"">+</div>","null","html-keyboard-response","47","677948","0.0-3.0-0.11","","fixation","",""
"4357","<img src= stimuli/temporalOrder/5.png width = '400' height = '251.57232704402514'><p>What came before this object?</p><img src= stimuli/temporalOrder/36.png width = '400' height = '251.57232704402514' hspace='5'><img src= stimuli/temporalOrder/14.png width = '400' height = '251.57232704402514' hspace='5'><img src= stimuli/temporalOrder/55.png width = '400' height = '251.57232704402514' hspace='5'><p>Press 1, 2 or 3.</p>","49","html-keyboard-response","48","682312","0.0-3.0-1.11","","temporalOrder","1","5"
"null","","null","html-keyboard-response","49","682815","0.0-3.0-2.11","","blank","",""
"690","<img src= stimuli/temporalOrder/5.png width = '400' height = '251.57232704402514'><p>In which room was the object?</p><img src= stimuli/contextMemory/13.png width = '400' height = '251.57232704402514' hspace='5'><img src= stimuli/contextMemory/25.png width = '400' height = '251.57232704402514' hspace='5'><img src= stimuli/contextMemory/17.png width = '400' height = '251.57232704402514' hspace='5'><p>Press 1, 2 or 3.</p>","51","html-keyboard-response","50","683511","0.0-3.0-3.11","","contextMemory","3","5"
"null","<div style=""font-size:60px;"">+</div>","null","html-keyboard-response","51","684013","0.0-3.0-0.12","","fixation","",""
"3524","<img src= stimuli/temporalOrder/79.png width = '400' height = '251.57232704402514'><p>What came before this object?</p><img src= stimuli/temporalOrder/51.png width = '400' height = '251.57232704402514' hspace='5'><img src= stimuli/temporalOrder/75.png width = '400' height = '251.57232704402514' hspace='5'><img src= stimuli/temporalOrder/34.png width = '400' height = '251.57232704402514' hspace='5'><p>Press 1, 2 or 3.</p>","51","html-keyboard-response","52","687543","0.0-3.0-1.12","","temporalOrder","1","79"
"null","","null","html-keyboard-response","53","688045","0.0-3.0-2.12","","blank","",""
"997","<img src= stimuli/temporalOrder/79.png width = '400' height = '251.57232704402514'><p>In which room was the object?</p><img src= stimuli/contextMemory/17.png width = '400' height = '251.57232704402514' hspace='5'><img src= stimuli/contextMemory/30.png width = '400' height = '251.57232704402514' hspace='5'><img src= stimuli/contextMemory/20.png width = '400' height = '251.57232704402514' hspace='5'><p>Press 1, 2 or 3.</p>","50","html-keyboard-response","54","689046","0.0-3.0-3.12","","contextMemory","3","79"
"null","<div style=""font-size:60px;"">+</div>","null","html-keyboard-response","55","689546","0.0-3.0-0.13","","fixation","",""
"2453","<img src= stimuli/temporalOrder/76.png width = '400' height = '251.57232704402514'><p>What came before this object?</p><img src= stimuli/temporalOrder/38.png width = '400' height = '251.57232704402514' hspace='5'><img src= stimuli/temporalOrder/13.png width = '400' height = '251.57232704402514' hspace='5'><img src= stimuli/temporalOrder/15.png width = '400' height = '251.57232704402514' hspace='5'><p>Press 1, 2 or 3.</p>","50","html-keyboard-response","56","692006","0.0-3.0-1.13","","temporalOrder","3","76"
"null","","null","html-keyboard-response","57","692507","0.0-3.0-2.13","","blank","",""
"1014","<img src= stimuli/temporalOrder/76.png width = '400' height = '251.57232704402514'><p>In which room was the object?</p><img src= stimuli/contextMemory/34.png width = '400' height = '251.57232704402514' hspace='5'><img src= stimuli/contextMemory/19.png width = '400' height = '251.57232704402514' hspace='5'><img src= stimuli/contextMemory/7.png width = '400' height = '251.57232704402514' hspace='5'><p>Press 1, 2 or 3.</p>","50","html-keyboard-response","58","693527","0.0-3.0-3.13","","contextMemory","2","76"
"null","<div style=""font-size:60px;"">+</div>","null","html-keyboard-response","59","694027","0.0-3.0-0.14","","fixation","",""
"1753","<img src= stimuli/temporalOrder/21.png width = '400' height = '251.57232704402514'><p>What came after this object?</p><img src= stimuli/temporalOrder/46.png width = '400' height = '251.57232704402514' hspace='5'><img src= stimuli/temporalOrder/75.png width = '400' height = '251.57232704402514' hspace='5'><img src= stimuli/temporalOrder/16.png width = '400' height = '251.57232704402514' hspace='5'><p>Press 1, 2 or 3.</p>","51","html-keyboard-response","60","695785","0.0-3.0-1.14","","temporalOrder","2","21"
"null","","null","html-keyboard-response","61","696287","0.0-3.0-2.14","","blank","",""
"772","<img src= stimuli/temporalOrder/21.png width = '400' height = '251.57232704402514'><p>In which room was the object?</p><img src= stimuli/contextMemory/37.png width = '400' height = '251.57232704402514' hspace='5'><img src= stimuli/contextMemory/7.png width = '400' height = '251.57232704402514' hspace='5'><img src= stimuli/contextMemory/1.png width = '400' height = '251.57232704402514' hspace='5'><p>Press 1, 2 or 3.</p>","49","html-keyboard-response","62","697062","0.0-3.0-3.14","","contextMemory","1","21"
"null","<div style=""font-size:60px;"">+</div>","null","html-keyboard-response","63","697564","0.0-3.0-0.15","","fixation","",""
"2390","<img src= stimuli/temporalOrder/63.png width = '400' height = '251.57232704402514'><p>What came before this object?</p><img src= stimuli/temporalOrder/37.png width = '400' height = '251.57232704402514' hspace='5'><img src= stimuli/temporalOrder/12.png width = '400' height = '251.57232704402514' hspace='5'><img src= stimuli/temporalOrder/19.png width = '400' height = '251.57232704402514' hspace='5'><p>Press 1, 2 or 3.</p>","49","html-keyboard-response","64","699959","0.0-3.0-1.15","","temporalOrder","1","63"
"null","","null","html-keyboard-response","65","700460","0.0-3.0-2.15","","blank","",""
"1284","<img src= stimuli/temporalOrder/63.png width = '400' height = '251.57232704402514'><p>In which room was the object?</p><img src= stimuli/contextMemory/14.png width = '400' height = '251.57232704402514' hspace='5'><img src= stimuli/contextMemory/18.png width = '400' height = '251.57232704402514' hspace='5'><img src= stimuli/contextMemory/28.png width = '400' height = '251.57232704402514' hspace='5'><p>Press 1, 2 or 3.</p>","49","html-keyboard-response","66","701749","0.0-3.0-3.15","","contextMemory","2","63"
"null","<div style=""font-size:60px;"">+</div>","null","html-keyboard-response","67","702250","0.0-3.0-0.16","","fixation","",""
"6440","<img src= stimuli/temporalOrder/16.png width = '400' height = '251.57232704402514'><p>What came after this object?</p><img src= stimuli/temporalOrder/44.png width = '400' height = '251.57232704402514' hspace='5'><img src= stimuli/temporalOrder/23.png width = '400' height = '251.57232704402514' hspace='5'><img src= stimuli/temporalOrder/15.png width = '400' height = '251.57232704402514' hspace='5'><p>Press 1, 2 or 3.</p>","50","html-keyboard-response","68","708695","0.0-3.0-1.16","","temporalOrder","2","16"
"null","","null","html-keyboard-response","69","709196","0.0-3.0-2.16","","blank","",""
"1461","<img src= stimuli/temporalOrder/16.png width = '400' height = '251.57232704402514'><p>In which room was the object?</p><img src= stimuli/contextMemory/35.png width = '400' height = '251.57232704402514' hspace='5'><img src= stimuli/contextMemory/4.png width = '400' height = '251.57232704402514' hspace='5'><img src= stimuli/contextMemory/39.png width = '400' height = '251.57232704402514' hspace='5'><p>Press 1, 2 or 3.</p>","49","html-keyboard-response","70","710665","0.0-3.0-3.16","","contextMemory","1","16"
"null","<div style=""font-size:60px;"">+</div>","null","html-keyboard-response","71","711165","0.0-3.0-0.17","","fixation","",""
"2741","<img src= stimuli/temporalOrder/56.png width = '400' height = '251.57232704402514'><p>What came after this object?</p><img src= stimuli/temporalOrder/84.png width = '400' height = '251.57232704402514' hspace='5'><img src= stimuli/temporalOrder/50.png width = '400' height = '251.57232704402514' hspace='5'><img src= stimuli/temporalOrder/39.png width = '400' height = '251.57232704402514' hspace='5'><p>Press 1, 2 or 3.</p>","50","html-keyboard-response","72","713910","0.0-3.0-1.17","","temporalOrder","2","56"
"null","","null","html-keyboard-response","73","714411","0.0-3.0-2.17","","blank","",""
"2008","<img src= stimuli/temporalOrder/56.png width = '400' height = '251.57232704402514'><p>In which room was the object?</p><img src= stimuli/contextMemory/42.png width = '400' height = '251.57232704402514' hspace='5'><img src= stimuli/contextMemory/25.png width = '400' height = '251.57232704402514' hspace='5'><img src= stimuli/contextMemory/30.png width = '400' height = '251.57232704402514' hspace='5'><p>Press 1, 2 or 3.</p>","51","html-keyboard-response","74","716422","0.0-3.0-3.17","","contextMemory","2","56"
"null","<div style=""font-size:60px;"">+</div>","null","html-keyboard-response","75","716923","0.0-3.0-0.18","","fixation","",""
"3076","<img src= stimuli/temporalOrder/78.png width = '400' height = '251.57232704402514'><p>What came before this object?</p><img src= stimuli/temporalOrder/61.png width = '400' height = '251.57232704402514' hspace='5'><img src= stimuli/temporalOrder/42.png width = '400' height = '251.57232704402514' hspace='5'><img src= stimuli/temporalOrder/29.png width = '400' height = '251.57232704402514' hspace='5'><p>Press 1, 2 or 3.</p>","50","html-keyboard-response","76","720005","0.0-3.0-1.18","","temporalOrder","2","78"
"null","","null","html-keyboard-response","77","720506","0.0-3.0-2.18","","blank","",""
"1655","<img src= stimuli/temporalOrder/78.png width = '400' height = '251.57232704402514'><p>In which room was the object?</p><img src= stimuli/contextMemory/44.png width = '400' height = '251.57232704402514' hspace='5'><img src= stimuli/contextMemory/43.png width = '400' height = '251.57232704402514' hspace='5'><img src= stimuli/contextMemory/3.png width = '400' height = '251.57232704402514' hspace='5'><p>Press 1, 2 or 3.</p>","50","html-keyboard-response","78","722166","0.0-3.0-3.18","","contextMemory","1","78"
"null","<div style=""font-size:60px;"">+</div>","null","html-keyboard-response","79","722667","0.0-3.0-0.19","","fixation","",""
"2694","<img src= stimuli/temporalOrder/18.png width = '400' height = '251.57232704402514'><p>What came before this object?</p><img src= stimuli/temporalOrder/31.png width = '400' height = '251.57232704402514' hspace='5'><img src= stimuli/temporalOrder/40.png width = '400' height = '251.57232704402514' hspace='5'><img src= stimuli/temporalOrder/30.png width = '400' height = '251.57232704402514' hspace='5'><p>Press 1, 2 or 3.</p>","49","html-keyboard-response","80","725366","0.0-3.0-1.19","","temporalOrder","2","18"
"null","","null","html-keyboard-response","81","725867","0.0-3.0-2.19","","blank","",""
"1252","<img src= stimuli/temporalOrder/18.png width = '400' height = '251.57232704402514'><p>In which room was the object?</p><img src= stimuli/contextMemory/30.png width = '400' height = '251.57232704402514' hspace='5'><img src= stimuli/contextMemory/34.png width = '400' height = '251.57232704402514' hspace='5'><img src= stimuli/contextMemory/33.png width = '400' height = '251.57232704402514' hspace='5'><p>Press 1, 2 or 3.</p>","49","html-keyboard-response","82","727125","0.0-3.0-3.19","","contextMemory","1","18"
"null","<div style=""font-size:60px;"">+</div>","null","html-keyboard-response","83","727626","0.0-3.0-0.20","","fixation","",""
"2397","<img src= stimuli/temporalOrder/13.png width = '400' height = '251.57232704402514'><p>What came before this object?</p><img src= stimuli/temporalOrder/68.png width = '400' height = '251.57232704402514' hspace='5'><img src= stimuli/temporalOrder/37.png width = '400' height = '251.57232704402514' hspace='5'><img src= stimuli/temporalOrder/58.png width = '400' height = '251.57232704402514' hspace='5'><p>Press 1, 2 or 3.</p>","51","html-keyboard-response","84","730027","0.0-3.0-1.20","","temporalOrder","1","13"
"null","","null","html-keyboard-response","85","730529","0.0-3.0-2.20","","blank","",""
"896","<img src= stimuli/temporalOrder/13.png width = '400' height = '251.57232704402514'><p>In which room was the object?</p><img src= stimuli/contextMemory/15.png width = '400' height = '251.57232704402514' hspace='5'><img src= stimuli/contextMemory/38.png width = '400' height = '251.57232704402514' hspace='5'><img src= stimuli/contextMemory/40.png width = '400' height = '251.57232704402514' hspace='5'><p>Press 1, 2 or 3.</p>","51","html-keyboard-response","86","731429","0.0-3.0-3.20","","contextMemory","3","13"
"null","<div style=""font-size:60px;"">+</div>","null","html-keyboard-response","87","731932","0.0-3.0-0.21","","fixation","",""
"2239","<img src= stimuli/temporalOrder/71.png width = '400' height = '251.57232704402514'><p>What came before this object?</p><img src= stimuli/temporalOrder/18.png width = '400' height = '251.57232704402514' hspace='5'><img src= stimuli/temporalOrder/44.png width = '400' height = '251.57232704402514' hspace='5'><img src= stimuli/temporalOrder/79.png width = '400' height = '251.57232704402514' hspace='5'><p>Press 1, 2 or 3.</p>","49","html-keyboard-response","88","734182","0.0-3.0-1.21","","temporalOrder","2","71"
"null","","null","html-keyboard-response","89","734682","0.0-3.0-2.21","","blank","",""
"580","<img src= stimuli/temporalOrder/71.png width = '400' height = '251.57232704402514'><p>In which room was the object?</p><img src= stimuli/contextMemory/4.png width = '400' height = '251.57232704402514' hspace='5'><img src= stimuli/contextMemory/14.png width = '400' height = '251.57232704402514' hspace='5'><img src= stimuli/contextMemory/40.png width = '400' height = '251.57232704402514' hspace='5'><p>Press 1, 2 or 3.</p>","49","html-keyboard-response","90","735268","0.0-3.0-3.21","","contextMemory","1","71"
"null","<div style=""font-size:60px;"">+</div>","null","html-keyboard-response","91","735769","0.0-3.0-0.22","","fixation","",""
"2473","<img src= stimuli/temporalOrder/77.png width = '400' height = '251.57232704402514'><p>What came before this object?</p><img src= stimuli/temporalOrder/76.png width = '400' height = '251.57232704402514' hspace='5'><img src= stimuli/temporalOrder/36.png width = '400' height = '251.57232704402514' hspace='5'><img src= stimuli/temporalOrder/81.png width = '400' height = '251.57232704402514' hspace='5'><p>Press 1, 2 or 3.</p>","50","html-keyboard-response","92","738244","0.0-3.0-1.22","","temporalOrder","3","77"
"null","","null","html-keyboard-response","93","738745","0.0-3.0-2.22","","blank","",""
"266","<img src= stimuli/temporalOrder/77.png width = '400' height = '251.57232704402514'><p>In which room was the object?</p><img src= stimuli/contextMemory/3.png width = '400' height = '251.57232704402514' hspace='5'><img src= stimuli/contextMemory/6.png width = '400' height = '251.57232704402514' hspace='5'><img src= stimuli/contextMemory/37.png width = '400' height = '251.57232704402514' hspace='5'><p>Press 1, 2 or 3.</p>","50","html-keyboard-response","94","739013","0.0-3.0-3.22","","contextMemory","2","77"
"null","<div style=""font-size:60px;"">+</div>","null","html-keyboard-response","95","739514","0.0-3.0-0.23","","fixation","",""
"3863","<img src= stimuli/temporalOrder/6.png width = '400' height = '251.57232704402514'><p>What came after this object?</p><img src= stimuli/temporalOrder/38.png width = '400' height = '251.57232704402514' hspace='5'><img src= stimuli/temporalOrder/5.png width = '400' height = '251.57232704402514' hspace='5'><img src= stimuli/temporalOrder/47.png width = '400' height = '251.57232704402514' hspace='5'><p>Press 1, 2 or 3.</p>","49","html-keyboard-response","96","743381","0.0-3.0-1.23","","temporalOrder","1","6"
"null","","null","html-keyboard-response","97","743882","0.0-3.0-2.23","","blank","",""
"2244","<img src= stimuli/temporalOrder/6.png width = '400' height = '251.57232704402514'><p>In which room was the object?</p><img src= stimuli/contextMemory/30.png width = '400' height = '251.57232704402514' hspace='5'><img src= stimuli/contextMemory/36.png width = '400' height = '251.57232704402514' hspace='5'><img src= stimuli/contextMemory/43.png width = '400' height = '251.57232704402514' hspace='5'><p>Press 1, 2 or 3.</p>","49","html-keyboard-response","98","746132","0.0-3.0-3.23","","contextMemory","3","6"
"null","<div style=""font-size:60px;"">+</div>","null","html-keyboard-response","99","746633","0.0-3.0-0.24","","fixation","",""
"1880","<img src= stimuli/temporalOrder/36.png width = '400' height = '251.57232704402514'><p>What came before this object?</p><img src= stimuli/temporalOrder/17.png width = '400' height = '251.57232704402514' hspace='5'><img src= stimuli/temporalOrder/33.png width = '400' height = '251.57232704402514' hspace='5'><img src= stimuli/temporalOrder/67.png width = '400' height = '251.57232704402514' hspace='5'><p>Press 1, 2 or 3.</p>","50","html-keyboard-response","100","748518","0.0-3.0-1.24","","temporalOrder","1","36"
"null","","null","html-keyboard-response","101","749019","0.0-3.0-2.24","","blank","",""
"903","<img src= stimuli/temporalOrder/36.png width = '400' height = '251.57232704402514'><p>In which room was the object?</p><img src= stimuli/contextMemory/15.png width = '400' height = '251.57232704402514' hspace='5'><img src= stimuli/contextMemory/17.png width = '400' height = '251.57232704402514' hspace='5'><img src= stimuli/contextMemory/10.png width = '400' height = '251.57232704402514' hspace='5'><p>Press 1, 2 or 3.</p>","51","html-keyboard-response","102","749925","0.0-3.0-3.24","","contextMemory","2","36"
"null","<div style=""font-size:60px;"">+</div>","null","html-keyboard-response","103","750426","0.0-3.0-0.25","","fixation","",""
"3399","<img src= stimuli/temporalOrder/29.png width = '400' height = '251.57232704402514'><p>What came after this object?</p><img src= stimuli/temporalOrder/80.png width = '400' height = '251.57232704402514' hspace='5'><img src= stimuli/temporalOrder/38.png width = '400' height = '251.57232704402514' hspace='5'><img src= stimuli/temporalOrder/45.png width = '400' height = '251.57232704402514' hspace='5'><p>Press 1, 2 or 3.</p>","49","html-keyboard-response","104","753830","0.0-3.0-1.25","","temporalOrder","1","29"
"null","","null","html-keyboard-response","105","754331","0.0-3.0-2.25","","blank","",""
"708","<img src= stimuli/temporalOrder/29.png width = '400' height = '251.57232704402514'><p>In which room was the object?</p><img src= stimuli/contextMemory/26.png width = '400' height = '251.57232704402514' hspace='5'><img src= stimuli/contextMemory/19.png width = '400' height = '251.57232704402514' hspace='5'><img src= stimuli/contextMemory/21.png width = '400' height = '251.57232704402514' hspace='5'><p>Press 1, 2 or 3.</p>","49","html-keyboard-response","106","755046","0.0-3.0-3.25","","contextMemory","3","29"
"null","<div style=""font-size:60px;"">+</div>","null","html-keyboard-response","107","755547","0.0-3.0-0.26","","fixation","",""
"2420","<img src= stimuli/temporalOrder/32.png width = '400' height = '251.57232704402514'><p>What came after this object?</p><img src= stimuli/temporalOrder/48.png width = '400' height = '251.57232704402514' hspace='5'><img src= stimuli/temporalOrder/43.png width = '400' height = '251.57232704402514' hspace='5'><img src= stimuli/temporalOrder/27.png width = '400' height = '251.57232704402514' hspace='5'><p>Press 1, 2 or 3.</p>","50","html-keyboard-response","108","757972","0.0-3.0-1.26","","temporalOrder","2","32"
"null","","null","html-keyboard-response","109","758473","0.0-3.0-2.26","","blank","",""
"534","<img src= stimuli/temporalOrder/32.png width = '400' height = '251.57232704402514'><p>In which room was the object?</p><img src= stimuli/contextMemory/27.png width = '400' height = '251.57232704402514' hspace='5'><img src= stimuli/contextMemory/23.png width = '400' height = '251.57232704402514' hspace='5'><img src= stimuli/contextMemory/11.png width = '400' height = '251.57232704402514' hspace='5'><p>Press 1, 2 or 3.</p>","50","html-keyboard-response","110","759012","0.0-3.0-3.26","","contextMemory","3","32"
"null","<div style=""font-size:60px;"">+</div>","null","html-keyboard-response","111","759514","0.0-3.0-0.27","","fixation","",""
"2599","<img src= stimuli/temporalOrder/38.png width = '400' height = '251.57232704402514'><p>What came after this object?</p><img src= stimuli/temporalOrder/52.png width = '400' height = '251.57232704402514' hspace='5'><img src= stimuli/temporalOrder/69.png width = '400' height = '251.57232704402514' hspace='5'><img src= stimuli/temporalOrder/42.png width = '400' height = '251.57232704402514' hspace='5'><p>Press 1, 2 or 3.</p>","49","html-keyboard-response","112","762117","0.0-3.0-1.27","","temporalOrder","3","38"
"null","","null","html-keyboard-response","113","762619","0.0-3.0-2.27","","blank","",""
"627","<img src= stimuli/temporalOrder/38.png width = '400' height = '251.57232704402514'><p>In which room was the object?</p><img src= stimuli/contextMemory/20.png width = '400' height = '251.57232704402514' hspace='5'><img src= stimuli/contextMemory/22.png width = '400' height = '251.57232704402514' hspace='5'><img src= stimuli/contextMemory/43.png width = '400' height = '251.57232704402514' hspace='5'><p>Press 1, 2 or 3.</p>","51","html-keyboard-response","114","763252","0.0-3.0-3.27","","contextMemory","3","38"
"null","<div style=""font-size:60px;"">+</div>","null","html-keyboard-response","115","763752","0.0-3.0-0.28","","fixation","",""
"1992","<img src= stimuli/temporalOrder/15.png width = '400' height = '251.57232704402514'><p>What came after this object?</p><img src= stimuli/temporalOrder/72.png width = '400' height = '251.57232704402514' hspace='5'><img src= stimuli/temporalOrder/76.png width = '400' height = '251.57232704402514' hspace='5'><img src= stimuli/temporalOrder/35.png width = '400' height = '251.57232704402514' hspace='5'><p>Press 1, 2 or 3.</p>","51","html-keyboard-response","116","765748","0.0-3.0-1.28","","temporalOrder","2","15"
"null","","null","html-keyboard-response","117","766248","0.0-3.0-2.28","","blank","",""
"758","<img src= stimuli/temporalOrder/15.png width = '400' height = '251.57232704402514'><p>In which room was the object?</p><img src= stimuli/contextMemory/1.png width = '400' height = '251.57232704402514' hspace='5'><img src= stimuli/contextMemory/44.png width = '400' height = '251.57232704402514' hspace='5'><img src= stimuli/contextMemory/19.png width = '400' height = '251.57232704402514' hspace='5'><p>Press 1, 2 or 3.</p>","49","html-keyboard-response","118","767012","0.0-3.0-3.28","","contextMemory","3","15"
"null","<div style=""font-size:60px;"">+</div>","null","html-keyboard-response","119","767513","0.0-3.0-0.29","","fixation","",""
"1991","<img src= stimuli/temporalOrder/68.png width = '400' height = '251.57232704402514'><p>What came before this object?</p><img src= stimuli/temporalOrder/48.png width = '400' height = '251.57232704402514' hspace='5'><img src= stimuli/temporalOrder/28.png width = '400' height = '251.57232704402514' hspace='5'><img src= stimuli/temporalOrder/2.png width = '400' height = '251.57232704402514' hspace='5'><p>Press 1, 2 or 3.</p>","50","html-keyboard-response","120","769508","0.0-3.0-1.29","","temporalOrder","3","68"
"null","","null","html-keyboard-response","121","770008","0.0-3.0-2.29","","blank","",""
"455","<img src= stimuli/temporalOrder/68.png width = '400' height = '251.57232704402514'><p>In which room was the object?</p><img src= stimuli/contextMemory/40.png width = '400' height = '251.57232704402514' hspace='5'><img src= stimuli/contextMemory/8.png width = '400' height = '251.57232704402514' hspace='5'><img src= stimuli/contextMemory/42.png width = '400' height = '251.57232704402514' hspace='5'><p>Press 1, 2 or 3.</p>","50","html-keyboard-response","122","770467","0.0-3.0-3.29","","contextMemory","1","68"
"null","<div style=""font-size:60px;"">+</div>","null","html-keyboard-response","123","770967","0.0-3.0-0.30","","fixation","",""
"1161","<img src= stimuli/temporalOrder/35.png width = '400' height = '251.57232704402514'><p>What came before this object?</p><img src= stimuli/temporalOrder/1.png width = '400' height = '251.57232704402514' hspace='5'><img src= stimuli/temporalOrder/27.png width = '400' height = '251.57232704402514' hspace='5'><img src= stimuli/temporalOrder/58.png width = '400' height = '251.57232704402514' hspace='5'><p>Press 1, 2 or 3.</p>","50","html-keyboard-response","124","772131","0.0-3.0-1.30","","temporalOrder","3","35"
"null","","null","html-keyboard-response","125","772632","0.0-3.0-2.30","","blank","",""
"298","<img src= stimuli/temporalOrder/35.png width = '400' height = '251.57232704402514'><p>In which room was the object?</p><img src= stimuli/contextMemory/3.png width = '400' height = '251.57232704402514' hspace='5'><img src= stimuli/contextMemory/8.png width = '400' height = '251.57232704402514' hspace='5'><img src= stimuli/contextMemory/32.png width = '400' height = '251.57232704402514' hspace='5'><p>Press 1, 2 or 3.</p>","50","html-keyboard-response","126","772931","0.0-3.0-3.30","","contextMemory","1","35"
"null","<div style=""font-size:60px;"">+</div>","null","html-keyboard-response","127","773431","0.0-3.0-0.31","","fixation","",""
"3128","<img src= stimuli/temporalOrder/52.png width = '400' height = '251.57232704402514'><p>What came after this object?</p><img src= stimuli/temporalOrder/30.png width = '400' height = '251.57232704402514' hspace='5'><img src= stimuli/temporalOrder/4.png width = '400' height = '251.57232704402514' hspace='5'><img src= stimuli/temporalOrder/78.png width = '400' height = '251.57232704402514' hspace='5'><p>Press 1, 2 or 3.</p>","51","html-keyboard-response","128","776564","0.0-3.0-1.31","","temporalOrder","1","52"
"null","","null","html-keyboard-response","129","777067","0.0-3.0-2.31","","blank","",""
"1637","<img src= stimuli/temporalOrder/52.png width = '400' height = '251.57232704402514'><p>In which room was the object?</p><img src= stimuli/contextMemory/7.png width = '400' height = '251.57232704402514' hspace='5'><img src= stimuli/contextMemory/14.png width = '400' height = '251.57232704402514' hspace='5'><img src= stimuli/contextMemory/1.png width = '400' height = '251.57232704402514' hspace='5'><p>Press 1, 2 or 3.</p>","51","html-keyboard-response","130","778707","0.0-3.0-3.31","","contextMemory","2","52"
"null","<div style=""font-size:60px;"">+</div>","null","html-keyboard-response","131","779207","0.0-3.0-0.32","","fixation","",""
"1621","<img src= stimuli/temporalOrder/84.png width = '400' height = '251.57232704402514'><p>What came before this object?</p><img src= stimuli/temporalOrder/65.png width = '400' height = '251.57232704402514' hspace='5'><img src= stimuli/temporalOrder/6.png width = '400' height = '251.57232704402514' hspace='5'><img src= stimuli/temporalOrder/22.png width = '400' height = '251.57232704402514' hspace='5'><p>Press 1, 2 or 3.</p>","50","html-keyboard-response","132","780836","0.0-3.0-1.32","","temporalOrder","3","84"
"null","","null","html-keyboard-response","133","781338","0.0-3.0-2.32","","blank","",""
"548","<img src= stimuli/temporalOrder/84.png width = '400' height = '251.57232704402514'><p>In which room was the object?</p><img src= stimuli/contextMemory/35.png width = '400' height = '251.57232704402514' hspace='5'><img src= stimuli/contextMemory/7.png width = '400' height = '251.57232704402514' hspace='5'><img src= stimuli/contextMemory/27.png width = '400' height = '251.57232704402514' hspace='5'><p>Press 1, 2 or 3.</p>","49","html-keyboard-response","134","781890","0.0-3.0-3.32","","contextMemory","2","84"
"null","<div style=""font-size:60px;"">+</div>","null","html-keyboard-response","135","782391","0.0-3.0-0.33","","fixation","",""
"1049","<img src= stimuli/temporalOrder/69.png width = '400' height = '251.57232704402514'><p>What came after this object?</p><img src= stimuli/temporalOrder/81.png width = '400' height = '251.57232704402514' hspace='5'><img src= stimuli/temporalOrder/79.png width = '400' height = '251.57232704402514' hspace='5'><img src= stimuli/temporalOrder/75.png width = '400' height = '251.57232704402514' hspace='5'><p>Press 1, 2 or 3.</p>","50","html-keyboard-response","136","783443","0.0-3.0-1.33","","temporalOrder","1","69"
"null","","null","html-keyboard-response","137","783944","0.0-3.0-2.33","","blank","",""
"328","<img src= stimuli/temporalOrder/69.png width = '400' height = '251.57232704402514'><p>In which room was the object?</p><img src= stimuli/contextMemory/5.png width = '400' height = '251.57232704402514' hspace='5'><img src= stimuli/contextMemory/2.png width = '400' height = '251.57232704402514' hspace='5'><img src= stimuli/contextMemory/32.png width = '400' height = '251.57232704402514' hspace='5'><p>Press 1, 2 or 3.</p>","51","html-keyboard-response","138","784274","0.0-3.0-3.33","","contextMemory","1","69"
"null","<div style=""font-size:60px;"">+</div>","null","html-keyboard-response","139","784776","0.0-3.0-0.34","","fixation","",""
"2185","<img src= stimuli/temporalOrder/60.png width = '400' height = '251.57232704402514'><p>What came before this object?</p><img src= stimuli/temporalOrder/18.png width = '400' height = '251.57232704402514' hspace='5'><img src= stimuli/temporalOrder/51.png width = '400' height = '251.57232704402514' hspace='5'><img src= stimuli/temporalOrder/49.png width = '400' height = '251.57232704402514' hspace='5'><p>Press 1, 2 or 3.</p>","50","html-keyboard-response","140","786965","0.0-3.0-1.34","","temporalOrder","1","60"
"null","","null","html-keyboard-response","141","787466","0.0-3.0-2.34","","blank","",""
"71","<img src= stimuli/temporalOrder/60.png width = '400' height = '251.57232704402514'><p>In which room was the object?</p><img src= stimuli/contextMemory/31.png width = '400' height = '251.57232704402514' hspace='5'><img src= stimuli/contextMemory/39.png width = '400' height = '251.57232704402514' hspace='5'><img src= stimuli/contextMemory/4.png width = '400' height = '251.57232704402514' hspace='5'><p>Press 1, 2 or 3.</p>","50","html-keyboard-response","142","787541","0.0-3.0-3.34","","contextMemory","1","60"
"null","<div style=""font-size:60px;"">+</div>","null","html-keyboard-response","143","788042","0.0-3.0-0.35","","fixation","",""
"3799","<img src= stimuli/temporalOrder/26.png width = '400' height = '251.57232704402514'><p>What came before this object?</p><img src= stimuli/temporalOrder/52.png width = '400' height = '251.57232704402514' hspace='5'><img src= stimuli/temporalOrder/82.png width = '400' height = '251.57232704402514' hspace='5'><img src= stimuli/temporalOrder/80.png width = '400' height = '251.57232704402514' hspace='5'><p>Press 1, 2 or 3.</p>","51","html-keyboard-response","144","791843","0.0-3.0-1.35","","temporalOrder","3","26"
"null","","null","html-keyboard-response","145","792344","0.0-3.0-2.35","","blank","",""
"1298","<img src= stimuli/temporalOrder/26.png width = '400' height = '251.57232704402514'><p>In which room was the object?</p><img src= stimuli/contextMemory/21.png width = '400' height = '251.57232704402514' hspace='5'><img src= stimuli/contextMemory/22.png width = '400' height = '251.57232704402514' hspace='5'><img src= stimuli/contextMemory/17.png width = '400' height = '251.57232704402514' hspace='5'><p>Press 1, 2 or 3.</p>","49","html-keyboard-response","146","793644","0.0-3.0-3.35","","contextMemory","2","26"
"null","<div style=""font-size:60px;"">+</div>","null","html-keyboard-response","147","794145","0.0-3.0-0.36","","fixation","",""
"2350","<img src= stimuli/temporalOrder/23.png width = '400' height = '251.57232704402514'><p>What came before this object?</p><img src= stimuli/temporalOrder/16.png width = '400' height = '251.57232704402514' hspace='5'><img src= stimuli/temporalOrder/47.png width = '400' height = '251.57232704402514' hspace='5'><img src= stimuli/temporalOrder/20.png width = '400' height = '251.57232704402514' hspace='5'><p>Press 1, 2 or 3.</p>","49","html-keyboard-response","148","796501","0.0-3.0-1.36","","temporalOrder","1","23"
"null","","null","html-keyboard-response","149","797002","0.0-3.0-2.36","","blank","",""
"2198","<img src= stimuli/temporalOrder/23.png width = '400' height = '251.57232704402514'><p>In which room was the object?</p><img src= stimuli/contextMemory/41.png width = '400' height = '251.57232704402514' hspace='5'><img src= stimuli/contextMemory/18.png width = '400' height = '251.57232704402514' hspace='5'><img src= stimuli/contextMemory/36.png width = '400' height = '251.57232704402514' hspace='5'><p>Press 1, 2 or 3.</p>","51","html-keyboard-response","150","799202","0.0-3.0-3.36","","contextMemory","3","23"
"null","<div style=""font-size:60px;"">+</div>","null","html-keyboard-response","151","799704","0.0-3.0-0.37","","fixation","",""
"1977","<img src= stimuli/temporalOrder/17.png width = '400' height = '251.57232704402514'><p>What came after this object?</p><img src= stimuli/temporalOrder/18.png width = '400' height = '251.57232704402514' hspace='5'><img src= stimuli/temporalOrder/7.png width = '400' height = '251.57232704402514' hspace='5'><img src= stimuli/temporalOrder/36.png width = '400' height = '251.57232704402514' hspace='5'><p>Press 1, 2 or 3.</p>","50","html-keyboard-response","152","801683","0.0-3.0-1.37","","temporalOrder","3","17"
"null","","null","html-keyboard-response","153","802186","0.0-3.0-2.37","","blank","",""
"749","<img src= stimuli/temporalOrder/17.png width = '400' height = '251.57232704402514'><p>In which room was the object?</p><img src= stimuli/contextMemory/43.png width = '400' height = '251.57232704402514' hspace='5'><img src= stimuli/contextMemory/16.png width = '400' height = '251.57232704402514' hspace='5'><img src= stimuli/contextMemory/7.png width = '400' height = '251.57232704402514' hspace='5'><p>Press 1, 2 or 3.</p>","51","html-keyboard-response","154","802947","0.0-3.0-3.37","","contextMemory","2","17"
"null","<div style=""font-size:60px;"">+</div>","null","html-keyboard-response","155","803450","0.0-3.0-0.38","","fixation","",""
"1663","<img src= stimuli/temporalOrder/85.png width = '400' height = '251.57232704402514'><p>What came before this object?</p><img src= stimuli/temporalOrder/87.png width = '400' height = '251.57232704402514' hspace='5'><img src= stimuli/temporalOrder/23.png width = '400' height = '251.57232704402514' hspace='5'><img src= stimuli/temporalOrder/34.png width = '400' height = '251.57232704402514' hspace='5'><p>Press 1, 2 or 3.</p>","50","html-keyboard-response","156","805121","0.0-3.0-1.38","","temporalOrder","1","85"
"null","","null","html-keyboard-response","157","805622","0.0-3.0-2.38","","blank","",""
"232","<img src= stimuli/temporalOrder/85.png width = '400' height = '251.57232704402514'><p>In which room was the object?</p><img src= stimuli/contextMemory/35.png width = '400' height = '251.57232704402514' hspace='5'><img src= stimuli/contextMemory/23.png width = '400' height = '251.57232704402514' hspace='5'><img src= stimuli/contextMemory/25.png width = '400' height = '251.57232704402514' hspace='5'><p>Press 1, 2 or 3.</p>","51","html-keyboard-response","158","805858","0.0-3.0-3.38","","contextMemory","2","85"
"null","<div style=""font-size:60px;"">+</div>","null","html-keyboard-response","159","806360","0.0-3.0-0.39","","fixation","",""
"2359","<img src= stimuli/temporalOrder/83.png width = '400' height = '251.57232704402514'><p>What came before this object?</p><img src= stimuli/temporalOrder/86.png width = '400' height = '251.57232704402514' hspace='5'><img src= stimuli/temporalOrder/77.png width = '400' height = '251.57232704402514' hspace='5'><img src= stimuli/temporalOrder/43.png width = '400' height = '251.57232704402514' hspace='5'><p>Press 1, 2 or 3.</p>","51","html-keyboard-response","160","808723","0.0-3.0-1.39","","temporalOrder","3","83"
"null","","null","html-keyboard-response","161","809224","0.0-3.0-2.39","","blank","",""
"165","<img src= stimuli/temporalOrder/83.png width = '400' height = '251.57232704402514'><p>In which room was the object?</p><img src= stimuli/contextMemory/12.png width = '400' height = '251.57232704402514' hspace='5'><img src= stimuli/contextMemory/36.png width = '400' height = '251.57232704402514' hspace='5'><img src= stimuli/contextMemory/6.png width = '400' height = '251.57232704402514' hspace='5'><p>Press 1, 2 or 3.</p>","51","html-keyboard-response","162","809395","0.0-3.0-3.39","","contextMemory","1","83"
"null","<div style=""font-size:60px;"">+</div>","null","html-keyboard-response","163","809898","0.0-3.0-0.40","","fixation","",""
"774","<img src= stimuli/temporalOrder/49.png width = '400' height = '251.57232704402514'><p>What came after this object?</p><img src= stimuli/temporalOrder/31.png width = '400' height = '251.57232704402514' hspace='5'><img src= stimuli/temporalOrder/53.png width = '400' height = '251.57232704402514' hspace='5'><img src= stimuli/temporalOrder/85.png width = '400' height = '251.57232704402514' hspace='5'><p>Press 1, 2 or 3.</p>","50","html-keyboard-response","164","810674","0.0-3.0-1.40","","temporalOrder","1","49"
"null","","null","html-keyboard-response","165","811174","0.0-3.0-2.40","","blank","",""
"249","<img src= stimuli/temporalOrder/49.png width = '400' height = '251.57232704402514'><p>In which room was the object?</p><img src= stimuli/contextMemory/22.png width = '400' height = '251.57232704402514' hspace='5'><img src= stimuli/contextMemory/10.png width = '400' height = '251.57232704402514' hspace='5'><img src= stimuli/contextMemory/26.png width = '400' height = '251.57232704402514' hspace='5'><p>Press 1, 2 or 3.</p>","50","html-keyboard-response","166","811425","0.0-3.0-3.40","","contextMemory","3","49"
"null","<div style=""font-size:60px;"">+</div>","null","html-keyboard-response","167","811927","0.0-3.0-0.41","","fixation","",""
"1126","<img src= stimuli/temporalOrder/46.png width = '400' height = '251.57232704402514'><p>What came before this object?</p><img src= stimuli/temporalOrder/70.png width = '400' height = '251.57232704402514' hspace='5'><img src= stimuli/temporalOrder/74.png width = '400' height = '251.57232704402514' hspace='5'><img src= stimuli/temporalOrder/61.png width = '400' height = '251.57232704402514' hspace='5'><p>Press 1, 2 or 3.</p>","50","html-keyboard-response","168","813059","0.0-3.0-1.41","","temporalOrder","3","46"
"null","","null","html-keyboard-response","169","813560","0.0-3.0-2.41","","blank","",""
"711","<img src= stimuli/temporalOrder/46.png width = '400' height = '251.57232704402514'><p>In which room was the object?</p><img src= stimuli/contextMemory/11.png width = '400' height = '251.57232704402514' hspace='5'><img src= stimuli/contextMemory/34.png width = '400' height = '251.57232704402514' hspace='5'><img src= stimuli/contextMemory/24.png width = '400' height = '251.57232704402514' hspace='5'><p>Press 1, 2 or 3.</p>","51","html-keyboard-response","170","814275","0.0-3.0-3.41","","contextMemory","1","46"
"null","<div style=""font-size:60px;"">+</div>","null","html-keyboard-response","171","814775","0.0-3.0-0.42","","fixation","",""
"1462","<img src= stimuli/temporalOrder/2.png width = '400' height = '251.57232704402514'><p>What came before this object?</p><img src= stimuli/temporalOrder/21.png width = '400' height = '251.57232704402514' hspace='5'><img src= stimuli/temporalOrder/60.png width = '400' height = '251.57232704402514' hspace='5'><img src= stimuli/temporalOrder/14.png width = '400' height = '251.57232704402514' hspace='5'><p>Press 1, 2 or 3.</p>","51","html-keyboard-response","172","816243","0.0-3.0-1.42","","temporalOrder","3","2"
"null","","null","html-keyboard-response","173","816744","0.0-3.0-2.42","","blank","",""
"646","<img src= stimuli/temporalOrder/2.png width = '400' height = '251.57232704402514'><p>In which room was the object?</p><img src= stimuli/contextMemory/17.png width = '400' height = '251.57232704402514' hspace='5'><img src= stimuli/contextMemory/39.png width = '400' height = '251.57232704402514' hspace='5'><img src= stimuli/contextMemory/11.png width = '400' height = '251.57232704402514' hspace='5'><p>Press 1, 2 or 3.</p>","50","html-keyboard-response","174","817393","0.0-3.0-3.42","","contextMemory","2","2"
"null","<div style=""font-size:60px;"">+</div>","null","html-keyboard-response","175","817895","0.0-3.0-0.43","","fixation","",""
"2024","<img src= stimuli/temporalOrder/54.png width = '400' height = '251.57232704402514'><p>What came after this object?</p><img src= stimuli/temporalOrder/81.png width = '400' height = '251.57232704402514' hspace='5'><img src= stimuli/temporalOrder/58.png width = '400' height = '251.57232704402514' hspace='5'><img src= stimuli/temporalOrder/14.png width = '400' height = '251.57232704402514' hspace='5'><p>Press 1, 2 or 3.</p>","50","html-keyboard-response","176","819921","0.0-3.0-1.43","","temporalOrder","3","54"
"null","","null","html-keyboard-response","177","820422","0.0-3.0-2.43","","blank","",""
"200","<img src= stimuli/temporalOrder/54.png width = '400' height = '251.57232704402514'><p>In which room was the object?</p><img src= stimuli/contextMemory/5.png width = '400' height = '251.57232704402514' hspace='5'><img src= stimuli/contextMemory/38.png width = '400' height = '251.57232704402514' hspace='5'><img src= stimuli/contextMemory/37.png width = '400' height = '251.57232704402514' hspace='5'><p>Press 1, 2 or 3.</p>","50","html-keyboard-response","178","820627","0.0-3.0-3.43","","contextMemory","2","54"
"null","<div style=""font-size:60px;"">+</div>","null","html-keyboard-response","179","821128","0.0-3.0-0.44","","fixation","",""
"1781","<img src= stimuli/temporalOrder/9.png width = '400' height = '251.57232704402514'><p>What came after this object?</p><img src= stimuli/temporalOrder/42.png width = '400' height = '251.57232704402514' hspace='5'><img src= stimuli/temporalOrder/11.png width = '400' height = '251.57232704402514' hspace='5'><img src= stimuli/temporalOrder/7.png width = '400' height = '251.57232704402514' hspace='5'><p>Press 1, 2 or 3.</p>","50","html-keyboard-response","180","822913","0.0-3.0-1.44","","temporalOrder","2","9"
"null","","null","html-keyboard-response","181","823414","0.0-3.0-2.44","","blank","",""
"217","<img src= stimuli/temporalOrder/9.png width = '400' height = '251.57232704402514'><p>In which room was the object?</p><img src= stimuli/contextMemory/15.png width = '400' height = '251.57232704402514' hspace='5'><img src= stimuli/contextMemory/26.png width = '400' height = '251.57232704402514' hspace='5'><img src= stimuli/contextMemory/42.png width = '400' height = '251.57232704402514' hspace='5'><p>Press 1, 2 or 3.</p>","50","html-keyboard-response","182","823634","0.0-3.0-3.44","","contextMemory","3","9"
"null","<div style=""font-size:60px;"">+</div>","null","html-keyboard-response","183","824135","0.0-3.0-0.45","","fixation","",""
"2183","<img src= stimuli/temporalOrder/3.png width = '400' height = '251.57232704402514'><p>What came after this object?</p><img src= stimuli/temporalOrder/34.png width = '400' height = '251.57232704402514' hspace='5'><img src= stimuli/temporalOrder/23.png width = '400' height = '251.57232704402514' hspace='5'><img src= stimuli/temporalOrder/86.png width = '400' height = '251.57232704402514' hspace='5'><p>Press 1, 2 or 3.</p>","49","html-keyboard-response","184","826322","0.0-3.0-1.45","","temporalOrder","1","3"
"null","","null","html-keyboard-response","185","826823","0.0-3.0-2.45","","blank","",""
"487","<img src= stimuli/temporalOrder/3.png width = '400' height = '251.57232704402514'><p>In which room was the object?</p><img src= stimuli/contextMemory/15.png width = '400' height = '251.57232704402514' hspace='5'><img src= stimuli/contextMemory/11.png width = '400' height = '251.57232704402514' hspace='5'><img src= stimuli/contextMemory/34.png width = '400' height = '251.57232704402514' hspace='5'><p>Press 1, 2 or 3.</p>","49","html-keyboard-response","186","827314","0.0-3.0-3.45","","contextMemory","3","3"
"null","<div style=""font-size:60px;"">+</div>","null","html-keyboard-response","187","827815","0.0-3.0-0.46","","fixation","",""
"3834","<img src= stimuli/temporalOrder/34.png width = '400' height = '251.57232704402514'><p>What came after this object?</p><img src= stimuli/temporalOrder/16.png width = '400' height = '251.57232704402514' hspace='5'><img src= stimuli/temporalOrder/32.png width = '400' height = '251.57232704402514' hspace='5'><img src= stimuli/temporalOrder/59.png width = '400' height = '251.57232704402514' hspace='5'><p>Press 1, 2 or 3.</p>","49","html-keyboard-response","188","831652","0.0-3.0-1.46","","temporalOrder","1","34"
"null","","null","html-keyboard-response","189","832153","0.0-3.0-2.46","","blank","",""
"917","<img src= stimuli/temporalOrder/34.png width = '400' height = '251.57232704402514'><p>In which room was the object?</p><img src= stimuli/contextMemory/38.png width = '400' height = '251.57232704402514' hspace='5'><img src= stimuli/contextMemory/18.png width = '400' height = '251.57232704402514' hspace='5'><img src= stimuli/contextMemory/35.png width = '400' height = '251.57232704402514' hspace='5'><p>Press 1, 2 or 3.</p>","51","html-keyboard-response","190","833073","0.0-3.0-3.46","","contextMemory","3","34"
"null","<div style=""font-size:60px;"">+</div>","null","html-keyboard-response","191","833574","0.0-3.0-0.47","","fixation","",""
"2952","<img src= stimuli/temporalOrder/27.png width = '400' height = '251.57232704402514'><p>What came after this object?</p><img src= stimuli/temporalOrder/65.png width = '400' height = '251.57232704402514' hspace='5'><img src= stimuli/temporalOrder/42.png width = '400' height = '251.57232704402514' hspace='5'><img src= stimuli/temporalOrder/12.png width = '400' height = '251.57232704402514' hspace='5'><p>Press 1, 2 or 3.</p>","50","html-keyboard-response","192","836530","0.0-3.0-1.47","","temporalOrder","3","27"
"null","","null","html-keyboard-response","193","837031","0.0-3.0-2.47","","blank","",""
"310","<img src= stimuli/temporalOrder/27.png width = '400' height = '251.57232704402514'><p>In which room was the object?</p><img src= stimuli/contextMemory/16.png width = '400' height = '251.57232704402514' hspace='5'><img src= stimuli/contextMemory/8.png width = '400' height = '251.57232704402514' hspace='5'><img src= stimuli/contextMemory/24.png width = '400' height = '251.57232704402514' hspace='5'><p>Press 1, 2 or 3.</p>","50","html-keyboard-response","194","837345","0.0-3.0-3.47","","contextMemory","2","27"
"null","<div style=""font-size:60px;"">+</div>","null","html-keyboard-response","195","837845","0.0-3.0-0.48","","fixation","",""
"1063","<img src= stimuli/temporalOrder/53.png width = '400' height = '251.57232704402514'><p>What came before this object?</p><img src= stimuli/temporalOrder/26.png width = '400' height = '251.57232704402514' hspace='5'><img src= stimuli/temporalOrder/22.png width = '400' height = '251.57232704402514' hspace='5'><img src= stimuli/temporalOrder/64.png width = '400' height = '251.57232704402514' hspace='5'><p>Press 1, 2 or 3.</p>","51","html-keyboard-response","196","838913","0.0-3.0-1.48","","temporalOrder","3","53"
"null","","null","html-keyboard-response","197","839414","0.0-3.0-2.48","","blank","",""
"230","<img src= stimuli/temporalOrder/53.png width = '400' height = '251.57232704402514'><p>In which room was the object?</p><img src= stimuli/contextMemory/21.png width = '400' height = '251.57232704402514' hspace='5'><img src= stimuli/contextMemory/13.png width = '400' height = '251.57232704402514' hspace='5'><img src= stimuli/contextMemory/12.png width = '400' height = '251.57232704402514' hspace='5'><p>Press 1, 2 or 3.</p>","51","html-keyboard-response","198","839649","0.0-3.0-3.48","","contextMemory","2","53"
"null","<div style=""font-size:60px;"">+</div>","null","html-keyboard-response","199","840150","0.0-3.0-0.49","","fixation","",""
"3834","<img src= stimuli/temporalOrder/59.png width = '400' height = '251.57232704402514'><p>What came before this object?</p><img src= stimuli/temporalOrder/55.png width = '400' height = '251.57232704402514' hspace='5'><img src= stimuli/temporalOrder/57.png width = '400' height = '251.57232704402514' hspace='5'><img src= stimuli/temporalOrder/1.png width = '400' height = '251.57232704402514' hspace='5'><p>Press 1, 2 or 3.</p>","51","html-keyboard-response","200","843987","0.0-3.0-1.49","","temporalOrder","3","59"
"null","","null","html-keyboard-response","201","844488","0.0-3.0-2.49","","blank","",""
"486","<img src= stimuli/temporalOrder/59.png width = '400' height = '251.57232704402514'><p>In which room was the object?</p><img src= stimuli/contextMemory/14.png width = '400' height = '251.57232704402514' hspace='5'><img src= stimuli/contextMemory/42.png width = '400' height = '251.57232704402514' hspace='5'><img src= stimuli/contextMemory/27.png width = '400' height = '251.57232704402514' hspace='5'><p>Press 1, 2 or 3.</p>","49","html-keyboard-response","202","844978","0.0-3.0-3.49","","contextMemory","3","59"
"null","<div style=""font-size:60px;"">+</div>","null","html-keyboard-response","203","845479","0.0-3.0-0.50","","fixation","",""
"1925","<img src= stimuli/temporalOrder/41.png width = '400' height = '251.57232704402514'><p>What came after this object?</p><img src= stimuli/temporalOrder/64.png width = '400' height = '251.57232704402514' hspace='5'><img src= stimuli/temporalOrder/72.png width = '400' height = '251.57232704402514' hspace='5'><img src= stimuli/temporalOrder/25.png width = '400' height = '251.57232704402514' hspace='5'><p>Press 1, 2 or 3.</p>","50","html-keyboard-response","204","847409","0.0-3.0-1.50","","temporalOrder","3","41"
"null","","null","html-keyboard-response","205","847910","0.0-3.0-2.50","","blank","",""
"136","<img src= stimuli/temporalOrder/41.png width = '400' height = '251.57232704402514'><p>In which room was the object?</p><img src= stimuli/contextMemory/17.png width = '400' height = '251.57232704402514' hspace='5'><img src= stimuli/contextMemory/6.png width = '400' height = '251.57232704402514' hspace='5'><img src= stimuli/contextMemory/31.png width = '400' height = '251.57232704402514' hspace='5'><p>Press 1, 2 or 3.</p>","50","html-keyboard-response","206","848048","0.0-3.0-3.50","","contextMemory","3","41"
"null","<div style=""font-size:60px;"">+</div>","null","html-keyboard-response","207","848549","0.0-3.0-0.51","","fixation","",""
"1946","<img src= stimuli/temporalOrder/44.png width = '400' height = '251.57232704402514'><p>What came after this object?</p><img src= stimuli/temporalOrder/25.png width = '400' height = '251.57232704402514' hspace='5'><img src= stimuli/temporalOrder/21.png width = '400' height = '251.57232704402514' hspace='5'><img src= stimuli/temporalOrder/71.png width = '400' height = '251.57232704402514' hspace='5'><p>Press 1, 2 or 3.</p>","50","html-keyboard-response","208","850497","0.0-3.0-1.51","","temporalOrder","3","44"
"null","","null","html-keyboard-response","209","850999","0.0-3.0-2.51","","blank","",""
"70","<img src= stimuli/temporalOrder/44.png width = '400' height = '251.57232704402514'><p>In which room was the object?</p><img src= stimuli/contextMemory/41.png width = '400' height = '251.57232704402514' hspace='5'><img src= stimuli/contextMemory/42.png width = '400' height = '251.57232704402514' hspace='5'><img src= stimuli/contextMemory/4.png width = '400' height = '251.57232704402514' hspace='5'><p>Press 1, 2 or 3.</p>","50","html-keyboard-response","210","851072","0.0-3.0-3.51","","contextMemory","3","44"
"null","<div style=""font-size:60px;"">+</div>","null","html-keyboard-response","211","851572","0.0-3.0-0.52","","fixation","",""
"2186","<img src= stimuli/temporalOrder/25.png width = '400' height = '251.57232704402514'><p>What came before this object?</p><img src= stimuli/temporalOrder/63.png width = '400' height = '251.57232704402514' hspace='5'><img src= stimuli/temporalOrder/60.png width = '400' height = '251.57232704402514' hspace='5'><img src= stimuli/temporalOrder/41.png width = '400' height = '251.57232704402514' hspace='5'><p>Press 1, 2 or 3.</p>","50","html-keyboard-response","212","853761","0.0-3.0-1.52","","temporalOrder","3","25"
"null","","null","html-keyboard-response","213","854263","0.0-3.0-2.52","","blank","",""
"232","<img src= stimuli/temporalOrder/25.png width = '400' height = '251.57232704402514'><p>In which room was the object?</p><img src= stimuli/contextMemory/32.png width = '400' height = '251.57232704402514' hspace='5'><img src= stimuli/contextMemory/38.png width = '400' height = '251.57232704402514' hspace='5'><img src= stimuli/contextMemory/22.png width = '400' height = '251.57232704402514' hspace='5'><p>Press 1, 2 or 3.</p>","50","html-keyboard-response","214","854496","0.0-3.0-3.52","","contextMemory","1","25"
"null","<div style=""font-size:60px;"">+</div>","null","html-keyboard-response","215","854997","0.0-3.0-0.53","","fixation","",""
"2057","<img src= stimuli/temporalOrder/7.png width = '400' height = '251.57232704402514'><p>What came before this object?</p><img src= stimuli/temporalOrder/87.png width = '400' height = '251.57232704402514' hspace='5'><img src= stimuli/temporalOrder/19.png width = '400' height = '251.57232704402514' hspace='5'><img src= stimuli/temporalOrder/85.png width = '400' height = '251.57232704402514' hspace='5'><p>Press 1, 2 or 3.</p>","50","html-keyboard-response","216","857058","0.0-3.0-1.53","","temporalOrder","2","7"
"null","","null","html-keyboard-response","217","857558","0.0-3.0-2.53","","blank","",""
"246","<img src= stimuli/temporalOrder/7.png width = '400' height = '251.57232704402514'><p>In which room was the object?</p><img src= stimuli/contextMemory/34.png width = '400' height = '251.57232704402514' hspace='5'><img src= stimuli/contextMemory/40.png width = '400' height = '251.57232704402514' hspace='5'><img src= stimuli/contextMemory/41.png width = '400' height = '251.57232704402514' hspace='5'><p>Press 1, 2 or 3.</p>","50","html-keyboard-response","218","857809","0.0-3.0-3.53","","contextMemory","3","7"
"null","<div style=""font-size:60px;"">+</div>","null","html-keyboard-response","219","858309","0.0-3.0-0.54","","fixation","",""
"2042","<img src= stimuli/temporalOrder/42.png width = '400' height = '251.57232704402514'><p>What came after this object?</p><img src= stimuli/temporalOrder/14.png width = '400' height = '251.57232704402514' hspace='5'><img src= stimuli/temporalOrder/78.png width = '400' height = '251.57232704402514' hspace='5'><img src= stimuli/temporalOrder/80.png width = '400' height = '251.57232704402514' hspace='5'><p>Press 1, 2 or 3.</p>","50","html-keyboard-response","220","860352","0.0-3.0-1.54","","temporalOrder","2","42"
"null","","null","html-keyboard-response","221","860853","0.0-3.0-2.54","","blank","",""
"136","<img src= stimuli/temporalOrder/42.png width = '400' height = '251.57232704402514'><p>In which room was the object?</p><img src= stimuli/contextMemory/20.png width = '400' height = '251.57232704402514' hspace='5'><img src= stimuli/contextMemory/44.png width = '400' height = '251.57232704402514' hspace='5'><img src= stimuli/contextMemory/39.png width = '400' height = '251.57232704402514' hspace='5'><p>Press 1, 2 or 3.</p>","50","html-keyboard-response","222","860992","0.0-3.0-3.54","","contextMemory","2","42"
"null","<div style=""font-size:60px;"">+</div>","null","html-keyboard-response","223","861493","0.0-3.0-0.55","","fixation","",""
"2666","<img src= stimuli/temporalOrder/22.png width = '400' height = '251.57232704402514'><p>What came after this object?</p><img src= stimuli/temporalOrder/83.png width = '400' height = '251.57232704402514' hspace='5'><img src= stimuli/temporalOrder/84.png width = '400' height = '251.57232704402514' hspace='5'><img src= stimuli/temporalOrder/81.png width = '400' height = '251.57232704402514' hspace='5'><p>Press 1, 2 or 3.</p>","50","html-keyboard-response","224","864161","0.0-3.0-1.55","","temporalOrder","2","22"
"null","","null","html-keyboard-response","225","864662","0.0-3.0-2.55","","blank","",""
"151","<img src= stimuli/temporalOrder/22.png width = '400' height = '251.57232704402514'><p>In which room was the object?</p><img src= stimuli/contextMemory/7.png width = '400' height = '251.57232704402514' hspace='5'><img src= stimuli/contextMemory/18.png width = '400' height = '251.57232704402514' hspace='5'><img src= stimuli/contextMemory/24.png width = '400' height = '251.57232704402514' hspace='5'><p>Press 1, 2 or 3.</p>","50","html-keyboard-response","226","864816","0.0-3.0-3.55","","contextMemory","1","22"
"null","<div style=""font-size:60px;"">+</div>","null","html-keyboard-response","227","865317","0.0-3.0-0.56","","fixation","",""
"1464","<img src= stimuli/temporalOrder/47.png width = '400' height = '251.57232704402514'><p>What came after this object?</p><img src= stimuli/temporalOrder/4.png width = '400' height = '251.57232704402514' hspace='5'><img src= stimuli/temporalOrder/35.png width = '400' height = '251.57232704402514' hspace='5'><img src= stimuli/temporalOrder/71.png width = '400' height = '251.57232704402514' hspace='5'><p>Press 1, 2 or 3.</p>","51","html-keyboard-response","228","866785","0.0-3.0-1.56","","temporalOrder","1","47"
"null","","null","html-keyboard-response","229","867285","0.0-3.0-2.56","","blank","",""
"121","<img src= stimuli/temporalOrder/47.png width = '400' height = '251.57232704402514'><p>In which room was the object?</p><img src= stimuli/contextMemory/1.png width = '400' height = '251.57232704402514' hspace='5'><img src= stimuli/contextMemory/40.png width = '400' height = '251.57232704402514' hspace='5'><img src= stimuli/contextMemory/2.png width = '400' height = '251.57232704402514' hspace='5'><p>Press 1, 2 or 3.</p>","50","html-keyboard-response","230","867407","0.0-3.0-3.56","","contextMemory","1","47"
"null","<div style=""font-size:60px;"">+</div>","null","html-keyboard-response","231","867909","0.0-3.0-0.57","","fixation","",""
"1129","<img src= stimuli/temporalOrder/74.png width = '400' height = '251.57232704402514'><p>What came after this object?</p><img src= stimuli/temporalOrder/44.png width = '400' height = '251.57232704402514' hspace='5'><img src= stimuli/temporalOrder/73.png width = '400' height = '251.57232704402514' hspace='5'><img src= stimuli/temporalOrder/67.png width = '400' height = '251.57232704402514' hspace='5'><p>Press 1, 2 or 3.</p>","50","html-keyboard-response","232","869040","0.0-3.0-1.57","","temporalOrder","1","74"
"null","","null","html-keyboard-response","233","869541","0.0-3.0-2.57","","blank","",""
"216","<img src= stimuli/temporalOrder/74.png width = '400' height = '251.57232704402514'><p>In which room was the object?</p><img src= stimuli/contextMemory/3.png width = '400' height = '251.57232704402514' hspace='5'><img src= stimuli/contextMemory/44.png width = '400' height = '251.57232704402514' hspace='5'><img src= stimuli/contextMemory/24.png width = '400' height = '251.57232704402514' hspace='5'><p>Press 1, 2 or 3.</p>","50","html-keyboard-response","234","869760","0.0-3.0-3.57","","contextMemory","1","74"
"null","<div style=""font-size:60px;"">+</div>","null","html-keyboard-response","235","870261","0.0-3.0-0.58","","fixation","",""
"2409","<img src= stimuli/temporalOrder/73.png width = '400' height = '251.57232704402514'><p>What came before this object?</p><img src= stimuli/temporalOrder/12.png width = '400' height = '251.57232704402514' hspace='5'><img src= stimuli/temporalOrder/57.png width = '400' height = '251.57232704402514' hspace='5'><img src= stimuli/temporalOrder/41.png width = '400' height = '251.57232704402514' hspace='5'><p>Press 1, 2 or 3.</p>","50","html-keyboard-response","236","872671","0.0-3.0-1.58","","temporalOrder","1","73"
"null","","null","html-keyboard-response","237","873172","0.0-3.0-2.58","","blank","",""
"404","<img src= stimuli/temporalOrder/73.png width = '400' height = '251.57232704402514'><p>In which room was the object?</p><img src= stimuli/contextMemory/35.png width = '400' height = '251.57232704402514' hspace='5'><img src= stimuli/contextMemory/9.png width = '400' height = '251.57232704402514' hspace='5'><img src= stimuli/contextMemory/29.png width = '400' height = '251.57232704402514' hspace='5'><p>Press 1, 2 or 3.</p>","50","html-keyboard-response","238","873579","0.0-3.0-3.58","","contextMemory","2","73"
"null","<div style=""font-size:60px;"">+</div>","null","html-keyboard-response","239","874080","0.0-3.0-0.59","","fixation","",""
"1275","<img src= stimuli/temporalOrder/14.png width = '400' height = '251.57232704402514'><p>What came before this object?</p><img src= stimuli/temporalOrder/40.png width = '400' height = '251.57232704402514' hspace='5'><img src= stimuli/temporalOrder/78.png width = '400' height = '251.57232704402514' hspace='5'><img src= stimuli/temporalOrder/54.png width = '400' height = '251.57232704402514' hspace='5'><p>Press 1, 2 or 3.</p>","50","html-keyboard-response","240","875359","0.0-3.0-1.59","","temporalOrder","3","14"
"null","","null","html-keyboard-response","241","875860","0.0-3.0-2.59","","blank","",""
"105","<img src= stimuli/temporalOrder/14.png width = '400' height = '251.57232704402514'><p>In which room was the object?</p><img src= stimuli/contextMemory/39.png width = '400' height = '251.57232704402514' hspace='5'><img src= stimuli/contextMemory/19.png width = '400' height = '251.57232704402514' hspace='5'><img src= stimuli/contextMemory/9.png width = '400' height = '251.57232704402514' hspace='5'><p>Press 1, 2 or 3.</p>","50","html-keyboard-response","242","875967","0.0-3.0-3.59","","contextMemory","1","14"
"null","<div style=""font-size:60px;"">+</div>","null","html-keyboard-response","243","876468","0.0-3.0-0.60","","fixation","",""
"1337","<img src= stimuli/temporalOrder/11.png width = '400' height = '251.57232704402514'><p>What came after this object?</p><img src= stimuli/temporalOrder/10.png width = '400' height = '251.57232704402514' hspace='5'><img src= stimuli/temporalOrder/80.png width = '400' height = '251.57232704402514' hspace='5'><img src= stimuli/temporalOrder/6.png width = '400' height = '251.57232704402514' hspace='5'><p>Press 1, 2 or 3.</p>","50","html-keyboard-response","244","877808","0.0-3.0-1.60","","temporalOrder","3","11"
"null","","null","html-keyboard-response","245","878308","0.0-3.0-2.60","","blank","",""
"186","<img src= stimuli/temporalOrder/11.png width = '400' height = '251.57232704402514'><p>In which room was the object?</p><img src= stimuli/contextMemory/10.png width = '400' height = '251.57232704402514' hspace='5'><img src= stimuli/contextMemory/42.png width = '400' height = '251.57232704402514' hspace='5'><img src= stimuli/contextMemory/26.png width = '400' height = '251.57232704402514' hspace='5'><p>Press 1, 2 or 3.</p>","50","html-keyboard-response","246","878495","0.0-3.0-3.60","","contextMemory","2","11"
"null","<div style=""font-size:60px;"">+</div>","null","html-keyboard-response","247","878996","0.0-3.0-0.61","","fixation","",""
"985","<img src= stimuli/temporalOrder/87.png width = '400' height = '251.57232704402514'><p>What came after this object?</p><img src= stimuli/temporalOrder/17.png width = '400' height = '251.57232704402514' hspace='5'><img src= stimuli/temporalOrder/70.png width = '400' height = '251.57232704402514' hspace='5'><img src= stimuli/temporalOrder/85.png width = '400' height = '251.57232704402514' hspace='5'><p>Press 1, 2 or 3.</p>","50","html-keyboard-response","248","879983","0.0-3.0-1.61","","temporalOrder","3","87"
"null","","null","html-keyboard-response","249","880485","0.0-3.0-2.61","","blank","",""
"155","<img src= stimuli/temporalOrder/87.png width = '400' height = '251.57232704402514'><p>In which room was the object?</p><img src= stimuli/contextMemory/22.png width = '400' height = '251.57232704402514' hspace='5'><img src= stimuli/contextMemory/35.png width = '400' height = '251.57232704402514' hspace='5'><img src= stimuli/contextMemory/27.png width = '400' height = '251.57232704402514' hspace='5'><p>Press 1, 2 or 3.</p>","50","html-keyboard-response","250","880640","0.0-3.0-3.61","","contextMemory","1","87"
"null","<div style=""font-size:60px;"">+</div>","null","html-keyboard-response","251","881141","0.0-3.0-0.62","","fixation","",""
"1111","<img src= stimuli/temporalOrder/61.png width = '400' height = '251.57232704402514'><p>What came before this object?</p><img src= stimuli/temporalOrder/8.png width = '400' height = '251.57232704402514' hspace='5'><img src= stimuli/temporalOrder/36.png width = '400' height = '251.57232704402514' hspace='5'><img src= stimuli/temporalOrder/10.png width = '400' height = '251.57232704402514' hspace='5'><p>Press 1, 2 or 3.</p>","50","html-keyboard-response","252","882256","0.0-3.0-1.62","","temporalOrder","1","61"
"null","","null","html-keyboard-response","253","882757","0.0-3.0-2.62","","blank","",""
"217","<img src= stimuli/temporalOrder/61.png width = '400' height = '251.57232704402514'><p>In which room was the object?</p><img src= stimuli/contextMemory/28.png width = '400' height = '251.57232704402514' hspace='5'><img src= stimuli/contextMemory/10.png width = '400' height = '251.57232704402514' hspace='5'><img src= stimuli/contextMemory/33.png width = '400' height = '251.57232704402514' hspace='5'><p>Press 1, 2 or 3.</p>","50","html-keyboard-response","254","882975","0.0-3.0-3.62","","contextMemory","2","61"
"null","<div style=""font-size:60px;"">+</div>","null","html-keyboard-response","255","883476","0.0-3.0-0.63","","fixation","",""
"1320","<img src= stimuli/temporalOrder/1.png width = '400' height = '251.57232704402514'><p>What came after this object?</p><img src= stimuli/temporalOrder/59.png width = '400' height = '251.57232704402514' hspace='5'><img src= stimuli/temporalOrder/44.png width = '400' height = '251.57232704402514' hspace='5'><img src= stimuli/temporalOrder/64.png width = '400' height = '251.57232704402514' hspace='5'><p>Press 1, 2 or 3.</p>","49","html-keyboard-response","256","884799","0.0-3.0-1.63","","temporalOrder","1","1"
"null","","null","html-keyboard-response","257","885300","0.0-3.0-2.63","","blank","",""
"379","<img src= stimuli/temporalOrder/1.png width = '400' height = '251.57232704402514'><p>In which room was the object?</p><img src= stimuli/contextMemory/27.png width = '400' height = '251.57232704402514' hspace='5'><img src= stimuli/contextMemory/31.png width = '400' height = '251.57232704402514' hspace='5'><img src= stimuli/contextMemory/33.png width = '400' height = '251.57232704402514' hspace='5'><p>Press 1, 2 or 3.</p>","50","html-keyboard-response","258","885679","0.0-3.0-3.63","","contextMemory","1","1"
"null","<div style=""font-size:60px;"">+</div>","null","html-keyboard-response","259","886180","0.0-3.0-0.64","","fixation","",""
"3099","<img src= stimuli/temporalOrder/12.png width = '400' height = '251.57232704402514'><p>What came after this object?</p><img src= stimuli/temporalOrder/11.png width = '400' height = '251.57232704402514' hspace='5'><img src= stimuli/temporalOrder/2.png width = '400' height = '251.57232704402514' hspace='5'><img src= stimuli/temporalOrder/73.png width = '400' height = '251.57232704402514' hspace='5'><p>Press 1, 2 or 3.</p>","50","html-keyboard-response","260","889280","0.0-3.0-1.64","","temporalOrder","3","12"
"null","","null","html-keyboard-response","261","889782","0.0-3.0-2.64","","blank","",""
"199","<img src= stimuli/temporalOrder/12.png width = '400' height = '251.57232704402514'><p>In which room was the object?</p><img src= stimuli/contextMemory/8.png width = '400' height = '251.57232704402514' hspace='5'><img src= stimuli/contextMemory/31.png width = '400' height = '251.57232704402514' hspace='5'><img src= stimuli/contextMemory/20.png width = '400' height = '251.57232704402514' hspace='5'><p>Press 1, 2 or 3.</p>","50","html-keyboard-response","262","889985","0.0-3.0-3.64","","contextMemory","1","12"
"null","<div style=""font-size:60px;"">+</div>","null","html-keyboard-response","263","890486","0.0-3.0-0.65","","fixation","",""
"1912","<img src= stimuli/temporalOrder/45.png width = '400' height = '251.57232704402514'><p>What came after this object?</p><img src= stimuli/temporalOrder/48.png width = '400' height = '251.57232704402514' hspace='5'><img src= stimuli/temporalOrder/66.png width = '400' height = '251.57232704402514' hspace='5'><img src= stimuli/temporalOrder/6.png width = '400' height = '251.57232704402514' hspace='5'><p>Press 1, 2 or 3.</p>","50","html-keyboard-response","264","892400","0.0-3.0-1.65","","temporalOrder","1","45"
"null","","null","html-keyboard-response","265","892902","0.0-3.0-2.65","","blank","",""
"200","<img src= stimuli/temporalOrder/45.png width = '400' height = '251.57232704402514'><p>In which room was the object?</p><img src= stimuli/contextMemory/5.png width = '400' height = '251.57232704402514' hspace='5'><img src= stimuli/contextMemory/19.png width = '400' height = '251.57232704402514' hspace='5'><img src= stimuli/contextMemory/28.png width = '400' height = '251.57232704402514' hspace='5'><p>Press 1, 2 or 3.</p>","50","html-keyboard-response","266","893104","0.0-3.0-3.65","","contextMemory","3","45"
"null","<div style=""font-size:60px;"">+</div>","null","html-keyboard-response","267","893607","0.0-3.0-0.66","","fixation","",""
"1173","<img src= stimuli/temporalOrder/81.png width = '400' height = '251.57232704402514'><p>What came before this object?</p><img src= stimuli/temporalOrder/9.png width = '400' height = '251.57232704402514' hspace='5'><img src= stimuli/temporalOrder/56.png width = '400' height = '251.57232704402514' hspace='5'><img src= stimuli/temporalOrder/69.png width = '400' height = '251.57232704402514' hspace='5'><p>Press 1, 2 or 3.</p>","50","html-keyboard-response","268","894783","0.0-3.0-1.66","","temporalOrder","3","81"
"null","","null","html-keyboard-response","269","895284","0.0-3.0-2.66","","blank","",""
"139","<img src= stimuli/temporalOrder/81.png width = '400' height = '251.57232704402514'><p>In which room was the object?</p><img src= stimuli/contextMemory/9.png width = '400' height = '251.57232704402514' hspace='5'><img src= stimuli/contextMemory/13.png width = '400' height = '251.57232704402514' hspace='5'><img src= stimuli/contextMemory/6.png width = '400' height = '251.57232704402514' hspace='5'><p>Press 1, 2 or 3.</p>","50","html-keyboard-response","270","895424","0.0-3.0-3.66","","contextMemory","3","81"
"null","<div style=""font-size:60px;"">+</div>","null","html-keyboard-response","271","895925","0.0-3.0-0.67","","fixation","",""
"1384","<img src= stimuli/temporalOrder/70.png width = '400' height = '251.57232704402514'><p>What came before this object?</p><img src= stimuli/temporalOrder/50.png width = '400' height = '251.57232704402514' hspace='5'><img src= stimuli/temporalOrder/73.png width = '400' height = '251.57232704402514' hspace='5'><img src= stimuli/temporalOrder/71.png width = '400' height = '251.57232704402514' hspace='5'><p>Press 1, 2 or 3.</p>","50","html-keyboard-response","272","897310","0.0-3.0-1.67","","temporalOrder","3","70"
"null","","null","html-keyboard-response","273","897812","0.0-3.0-2.67","","blank","",""
"89","<img src= stimuli/temporalOrder/70.png width = '400' height = '251.57232704402514'><p>In which room was the object?</p><img src= stimuli/contextMemory/8.png width = '400' height = '251.57232704402514' hspace='5'><img src= stimuli/contextMemory/14.png width = '400' height = '251.57232704402514' hspace='5'><img src= stimuli/contextMemory/5.png width = '400' height = '251.57232704402514' hspace='5'><p>Press 1, 2 or 3.</p>","50","html-keyboard-response","274","897903","0.0-3.0-3.67","","contextMemory","3","70"
"null","<div style=""font-size:60px;"">+</div>","null","html-keyboard-response","275","898404","0.0-3.0-0.68","","fixation","",""
"634","<img src= stimuli/temporalOrder/72.png width = '400' height = '251.57232704402514'><p>What came before this object?</p><img src= stimuli/temporalOrder/50.png width = '400' height = '251.57232704402514' hspace='5'><img src= stimuli/temporalOrder/30.png width = '400' height = '251.57232704402514' hspace='5'><img src= stimuli/temporalOrder/54.png width = '400' height = '251.57232704402514' hspace='5'><p>Press 1, 2 or 3.</p>","50","html-keyboard-response","276","899040","0.0-3.0-1.68","","temporalOrder","2","72"
"null","","null","html-keyboard-response","277","899540","0.0-3.0-2.68","","blank","",""
"73","<img src= stimuli/temporalOrder/72.png width = '400' height = '251.57232704402514'><p>In which room was the object?</p><img src= stimuli/contextMemory/37.png width = '400' height = '251.57232704402514' hspace='5'><img src= stimuli/contextMemory/15.png width = '400' height = '251.57232704402514' hspace='5'><img src= stimuli/contextMemory/4.png width = '400' height = '251.57232704402514' hspace='5'><p>Press 1, 2 or 3.</p>","50","html-keyboard-response","278","899615","0.0-3.0-3.68","","contextMemory","2","72"
"null","<div style=""font-size:60px;"">+</div>","null","html-keyboard-response","279","900116","0.0-3.0-0.69","","fixation","",""
"458","<img src= stimuli/temporalOrder/50.png width = '400' height = '251.57232704402514'><p>What came before this object?</p><img src= stimuli/temporalOrder/17.png width = '400' height = '251.57232704402514' hspace='5'><img src= stimuli/temporalOrder/56.png width = '400' height = '251.57232704402514' hspace='5'><img src= stimuli/temporalOrder/41.png width = '400' height = '251.57232704402514' hspace='5'><p>Press 1, 2 or 3.</p>","50","html-keyboard-response","280","900576","0.0-3.0-1.69","","temporalOrder","2","50"
"null","","null","html-keyboard-response","281","901077","0.0-3.0-2.69","","blank","",""
"167","<img src= stimuli/temporalOrder/50.png width = '400' height = '251.57232704402514'><p>In which room was the object?</p><img src= stimuli/contextMemory/25.png width = '400' height = '251.57232704402514' hspace='5'><img src= stimuli/contextMemory/44.png width = '400' height = '251.57232704402514' hspace='5'><img src= stimuli/contextMemory/5.png width = '400' height = '251.57232704402514' hspace='5'><p>Press 1, 2 or 3.</p>","50","html-keyboard-response","282","901248","0.0-3.0-3.69","","contextMemory","1","50"
"null","<div style=""font-size:60px;"">+</div>","null","html-keyboard-response","283","901749","0.0-3.0-0.70","","fixation","",""
"1962","<img src= stimuli/temporalOrder/62.png width = '400' height = '251.57232704402514'><p>What came before this object?</p><img src= stimuli/temporalOrder/25.png width = '400' height = '251.57232704402514' hspace='5'><img src= stimuli/temporalOrder/33.png width = '400' height = '251.57232704402514' hspace='5'><img src= stimuli/temporalOrder/49.png width = '400' height = '251.57232704402514' hspace='5'><p>Press 1, 2 or 3.</p>","50","html-keyboard-response","284","903712","0.0-3.0-1.70","","temporalOrder","1","62"
"null","","null","html-keyboard-response","285","904214","0.0-3.0-2.70","","blank","",""
"197","<img src= stimuli/temporalOrder/62.png width = '400' height = '251.57232704402514'><p>In which room was the object?</p><img src= stimuli/contextMemory/32.png width = '400' height = '251.57232704402514' hspace='5'><img src= stimuli/contextMemory/21.png width = '400' height = '251.57232704402514' hspace='5'><img src= stimuli/contextMemory/23.png width = '400' height = '251.57232704402514' hspace='5'><p>Press 1, 2 or 3.</p>","50","html-keyboard-response","286","904414","0.0-3.0-3.70","","contextMemory","1","62"
"null","<div style=""font-size:60px;"">+</div>","null","html-keyboard-response","287","904913","0.0-3.0-0.71","","fixation","",""
"506","<img src= stimuli/temporalOrder/80.png width = '400' height = '251.57232704402514'><p>What came before this object?</p><img src= stimuli/temporalOrder/20.png width = '400' height = '251.57232704402514' hspace='5'><img src= stimuli/temporalOrder/29.png width = '400' height = '251.57232704402514' hspace='5'><img src= stimuli/temporalOrder/8.png width = '400' height = '251.57232704402514' hspace='5'><p>Press 1, 2 or 3.</p>","50","html-keyboard-response","288","905423","0.0-3.0-1.71","","temporalOrder","2","80"
"null","","null","html-keyboard-response","289","905925","0.0-3.0-2.71","","blank","",""
"216","<img src= stimuli/temporalOrder/80.png width = '400' height = '251.57232704402514'><p>In which room was the object?</p><img src= stimuli/contextMemory/2.png width = '400' height = '251.57232704402514' hspace='5'><img src= stimuli/contextMemory/21.png width = '400' height = '251.57232704402514' hspace='5'><img src= stimuli/contextMemory/38.png width = '400' height = '251.57232704402514' hspace='5'><p>Press 1, 2 or 3.</p>","50","html-keyboard-response","290","906143","0.0-3.0-3.71","","contextMemory","2","80"
"null","<div style=""font-size:60px;"">+</div>","null","html-keyboard-response","291","906644","0.0-3.0-0.72","","fixation","",""
"792","<img src= stimuli/temporalOrder/37.png width = '400' height = '251.57232704402514'><p>What came after this object?</p><img src= stimuli/temporalOrder/63.png width = '400' height = '251.57232704402514' hspace='5'><img src= stimuli/temporalOrder/61.png width = '400' height = '251.57232704402514' hspace='5'><img src= stimuli/temporalOrder/76.png width = '400' height = '251.57232704402514' hspace='5'><p>Press 1, 2 or 3.</p>","50","html-keyboard-response","292","907439","0.0-3.0-1.72","","temporalOrder","1","37"
"null","","null","html-keyboard-response","293","907940","0.0-3.0-2.72","","blank","",""
"297","<img src= stimuli/temporalOrder/37.png width = '400' height = '251.57232704402514'><p>In which room was the object?</p><img src= stimuli/contextMemory/2.png width = '400' height = '251.57232704402514' hspace='5'><img src= stimuli/contextMemory/18.png width = '400' height = '251.57232704402514' hspace='5'><img src= stimuli/contextMemory/11.png width = '400' height = '251.57232704402514' hspace='5'><p>Press 1, 2 or 3.</p>","50","html-keyboard-response","294","908239","0.0-3.0-3.72","","contextMemory","2","37"
"null","<div style=""font-size:60px;"">+</div>","null","html-keyboard-response","295","908740","0.0-3.0-0.73","","fixation","",""
"666","<img src= stimuli/temporalOrder/86.png width = '400' height = '251.57232704402514'><p>What came before this object?</p><img src= stimuli/temporalOrder/46.png width = '400' height = '251.57232704402514' hspace='5'><img src= stimuli/temporalOrder/72.png width = '400' height = '251.57232704402514' hspace='5'><img src= stimuli/temporalOrder/66.png width = '400' height = '251.57232704402514' hspace='5'><p>Press 1, 2 or 3.</p>","50","html-keyboard-response","296","909407","0.0-3.0-1.73","","temporalOrder","2","86"
"null","","null","html-keyboard-response","297","909908","0.0-3.0-2.73","","blank","",""
"233","<img src= stimuli/temporalOrder/86.png width = '400' height = '251.57232704402514'><p>In which room was the object?</p><img src= stimuli/contextMemory/31.png width = '400' height = '251.57232704402514' hspace='5'><img src= stimuli/contextMemory/15.png width = '400' height = '251.57232704402514' hspace='5'><img src= stimuli/contextMemory/29.png width = '400' height = '251.57232704402514' hspace='5'><p>Press 1, 2 or 3.</p>","50","html-keyboard-response","298","910142","0.0-3.0-3.73","","contextMemory","2","86"
"null","<div style=""font-size:60px;"">+</div>","null","html-keyboard-response","299","910643","0.0-3.0-0.74","","fixation","",""
"571","<img src= stimuli/temporalOrder/55.png width = '400' height = '251.57232704402514'><p>What came after this object?</p><img src= stimuli/temporalOrder/21.png width = '400' height = '251.57232704402514' hspace='5'><img src= stimuli/temporalOrder/45.png width = '400' height = '251.57232704402514' hspace='5'><img src= stimuli/temporalOrder/62.png width = '400' height = '251.57232704402514' hspace='5'><p>Press 1, 2 or 3.</p>","50","html-keyboard-response","300","911215","0.0-3.0-1.74","","temporalOrder","1","55"
"null","","null","html-keyboard-response","301","911716","0.0-3.0-2.74","","blank","",""
"201","<img src= stimuli/temporalOrder/55.png width = '400' height = '251.57232704402514'><p>In which room was the object?</p><img src= stimuli/contextMemory/37.png width = '400' height = '251.57232704402514' hspace='5'><img src= stimuli/contextMemory/3.png width = '400' height = '251.57232704402514' hspace='5'><img src= stimuli/contextMemory/40.png width = '400' height = '251.57232704402514' hspace='5'><p>Press 1, 2 or 3.</p>","50","html-keyboard-response","302","911919","0.0-3.0-3.74","","contextMemory","1","55"
"null","<div style=""font-size:60px;"">+</div>","null","html-keyboard-response","303","912420","0.0-3.0-0.75","","fixation","",""
"634","<img src= stimuli/temporalOrder/0.png width = '400' height = '251.57232704402514'><p>What came after this object?</p><img src= stimuli/temporalOrder/77.png width = '400' height = '251.57232704402514' hspace='5'><img src= stimuli/temporalOrder/83.png width = '400' height = '251.57232704402514' hspace='5'><img src= stimuli/temporalOrder/8.png width = '400' height = '251.57232704402514' hspace='5'><p>Press 1, 2 or 3.</p>","50","html-keyboard-response","304","913055","0.0-3.0-1.75","","temporalOrder","3","0"
"null","","null","html-keyboard-response","305","913558","0.0-3.0-2.75","","blank","",""
"184","<img src= stimuli/temporalOrder/0.png width = '400' height = '251.57232704402514'><p>In which room was the object?</p><img src= stimuli/contextMemory/43.png width = '400' height = '251.57232704402514' hspace='5'><img src= stimuli/contextMemory/37.png width = '400' height = '251.57232704402514' hspace='5'><img src= stimuli/contextMemory/9.png width = '400' height = '251.57232704402514' hspace='5'><p>Press 1, 2 or 3.</p>","50","html-keyboard-response","306","913743","0.0-3.0-3.75","","contextMemory","3","0"
"null","<div style=""font-size:60px;"">+</div>","null","html-keyboard-response","307","914245","0.0-3.0-0.76","","fixation","",""
"535","<img src= stimuli/temporalOrder/48.png width = '400' height = '251.57232704402514'><p>What came after this object?</p><img src= stimuli/temporalOrder/20.png width = '400' height = '251.57232704402514' hspace='5'><img src= stimuli/temporalOrder/51.png width = '400' height = '251.57232704402514' hspace='5'><img src= stimuli/temporalOrder/37.png width = '400' height = '251.57232704402514' hspace='5'><p>Press 1, 2 or 3.</p>","50","html-keyboard-response","308","914782","0.0-3.0-1.76","","temporalOrder","1","48"
"null","","null","html-keyboard-response","309","915284","0.0-3.0-2.76","","blank","",""
"215","<img src= stimuli/temporalOrder/48.png width = '400' height = '251.57232704402514'><p>In which room was the object?</p><img src= stimuli/contextMemory/28.png width = '400' height = '251.57232704402514' hspace='5'><img src= stimuli/contextMemory/6.png width = '400' height = '251.57232704402514' hspace='5'><img src= stimuli/contextMemory/12.png width = '400' height = '251.57232704402514' hspace='5'><p>Press 1, 2 or 3.</p>","50","html-keyboard-response","310","915503","0.0-3.0-3.76","","contextMemory","1","48"
"null","<div style=""font-size:60px;"">+</div>","null","html-keyboard-response","311","916003","0.0-3.0-0.77","","fixation","",""
"696","<img src= stimuli/temporalOrder/58.png width = '400' height = '251.57232704402514'><p>What came before this object?</p><img src= stimuli/temporalOrder/39.png width = '400' height = '251.57232704402514' hspace='5'><img src= stimuli/temporalOrder/0.png width = '400' height = '251.57232704402514' hspace='5'><img src= stimuli/temporalOrder/68.png width = '400' height = '251.57232704402514' hspace='5'><p>Press 1, 2 or 3.</p>","50","html-keyboard-response","312","916702","0.0-3.0-1.77","","temporalOrder","1","58"
"null","","null","html-keyboard-response","313","917204","0.0-3.0-2.77","","blank","",""
"106","<img src= stimuli/temporalOrder/58.png width = '400' height = '251.57232704402514'><p>In which room was the object?</p><img src= stimuli/contextMemory/9.png width = '400' height = '251.57232704402514' hspace='5'><img src= stimuli/contextMemory/2.png width = '400' height = '251.57232704402514' hspace='5'><img src= stimuli/contextMemory/13.png width = '400' height = '251.57232704402514' hspace='5'><p>Press 1, 2 or 3.</p>","50","html-keyboard-response","314","917310","0.0-3.0-3.77","","contextMemory","2","58"
"null","<div style=""font-size:60px;"">+</div>","null","html-keyboard-response","315","917811","0.0-3.0-0.78","","fixation","",""
