"rt","stimulus","key_press","trial_type","trial_index","time_elapsed","internal_node_id","success","test_part","correct_response","probe"
"535906.9299999974","<p>Thank you for participating in this experiment.</p><p>At first, you will watch a video, in which you see a series of objects in a series of rooms.</p><p>Try to remember that sequence and try to remember the rooms an object was in. </p><p>To start the experiment, please watch the following video: <a href='https://youtu.be/PKNqyqvctJg' target='_blank'>https://youtu.be/PKNqyqvctJg</a><p>Please enable the full screen mode while watching the video and use the highest resolution.</p><p>Press <strong>space</strong> to continue after watching the video.</p>","32","html-keyboard-response","0","535925","0.0-0.0","","","",""
"","","","fullscreen","1","542301","0.0-1.0","true","","",""
"24415.07499999716","<p>After you have watched the video, you will now complete a memory task.</p><br><br><p>On each trial, you need to answer two questions. For both questions you have to</p><p>to choose the correct image from three alternatives by pressing 1, 2 or 3 from top of the keyboard.</p><p>For the first question, you need to decide which object was either before or after the object presented</p><p>at the top. This is relative to the sequence of objects you saw in the video. For the second question, </p><p>you need to decide in which room the object was. In order to do this, you need to base</p><p>this on the <strong>wall colour</strong> and the <strong>carpet</strong>.</p><br><p>Press <strong>space</strong> to begin.</p>","32","html-keyboard-response","2","566718","0.0-2.0","","","",""
"null","<div style=""font-size:60px;"">+</div>","null","html-keyboard-response","3","569227","0.0-3.0-0.0","","fixation","",""
"6416.234999996959","<img src= stimuli/temporalOrder/61.png width = '386.6666666666667' height = '243.18658280922432'><p>What came before this object?</p><img src= stimuli/temporalOrder/8.png width = '386.6666666666667' height = '243.18658280922432' hspace='5'><img src= stimuli/temporalOrder/36.png width = '386.6666666666667' height = '243.18658280922432' hspace='5'><img src= stimuli/temporalOrder/10.png width = '386.6666666666667' height = '243.18658280922432' hspace='5'><p>Press 1, 2 or 3.</p>","49","html-keyboard-response","4","575645","0.0-3.0-1.0","","temporalOrder","1","61"
"null","","null","html-keyboard-response","5","576146","0.0-3.0-2.0","","blank","",""
"7054.344999996829","<img src= stimuli/temporalOrder/61.png width = '386.6666666666667' height = '243.18658280922432'><p>In which room was the object?</p><img src= stimuli/contextMemory/28.png width = '386.6666666666667' height = '243.18658280922432' hspace='5'><img src= stimuli/contextMemory/10.png width = '386.6666666666667' height = '243.18658280922432' hspace='5'><img src= stimuli/contextMemory/33.png width = '386.6666666666667' height = '243.18658280922432' hspace='5'><p>Press 1, 2 or 3.</p>","50","html-keyboard-response","6","583202","0.0-3.0-3.0","","contextMemory","2","61"
"null","<div style=""font-size:60px;"">+</div>","null","html-keyboard-response","7","583705","0.0-3.0-0.1","","fixation","",""
"10594.110000005458","<img src= stimuli/temporalOrder/87.png width = '386.6666666666667' height = '243.18658280922432'><p>What came after this object?</p><img src= stimuli/temporalOrder/17.png width = '386.6666666666667' height = '243.18658280922432' hspace='5'><img src= stimuli/temporalOrder/70.png width = '386.6666666666667' height = '243.18658280922432' hspace='5'><img src= stimuli/temporalOrder/85.png width = '386.6666666666667' height = '243.18658280922432' hspace='5'><p>Press 1, 2 or 3.</p>","51","html-keyboard-response","8","594301","0.0-3.0-1.1","","temporalOrder","3","87"
"null","","null","html-keyboard-response","9","594805","0.0-3.0-2.1","","blank","",""
"5499.259999996866","<img src= stimuli/temporalOrder/87.png width = '386.6666666666667' height = '243.18658280922432'><p>In which room was the object?</p><img src= stimuli/contextMemory/22.png width = '386.6666666666667' height = '243.18658280922432' hspace='5'><img src= stimuli/contextMemory/35.png width = '386.6666666666667' height = '243.18658280922432' hspace='5'><img src= stimuli/contextMemory/27.png width = '386.6666666666667' height = '243.18658280922432' hspace='5'><p>Press 1, 2 or 3.</p>","50","html-keyboard-response","10","600306","0.0-3.0-3.1","","contextMemory","1","87"
"null","<div style=""font-size:60px;"">+</div>","null","html-keyboard-response","11","600810","0.0-3.0-0.2","","fixation","",""
"6611.290000000736","<img src= stimuli/temporalOrder/50.png width = '386.6666666666667' height = '243.18658280922432'><p>What came before this object?</p><img src= stimuli/temporalOrder/17.png width = '386.6666666666667' height = '243.18658280922432' hspace='5'><img src= stimuli/temporalOrder/56.png width = '386.6666666666667' height = '243.18658280922432' hspace='5'><img src= stimuli/temporalOrder/41.png width = '386.6666666666667' height = '243.18658280922432' hspace='5'><p>Press 1, 2 or 3.</p>","49","html-keyboard-response","12","607423","0.0-3.0-1.2","","temporalOrder","2","50"
"null","","null","html-keyboard-response","13","607924","0.0-3.0-2.2","","blank","",""
"3216.745000012452","<img src= stimuli/temporalOrder/50.png width = '386.6666666666667' height = '243.18658280922432'><p>In which room was the object?</p><img src= stimuli/contextMemory/25.png width = '386.6666666666667' height = '243.18658280922432' hspace='5'><img src= stimuli/contextMemory/44.png width = '386.6666666666667' height = '243.18658280922432' hspace='5'><img src= stimuli/contextMemory/5.png width = '386.6666666666667' height = '243.18658280922432' hspace='5'><p>Press 1, 2 or 3.</p>","49","html-keyboard-response","14","611142","0.0-3.0-3.2","","contextMemory","1","50"
"null","<div style=""font-size:60px;"">+</div>","null","html-keyboard-response","15","611646","0.0-3.0-0.3","","fixation","",""
"4661.779999994906","<img src= stimuli/temporalOrder/58.png width = '386.6666666666667' height = '243.18658280922432'><p>What came before this object?</p><img src= stimuli/temporalOrder/39.png width = '386.6666666666667' height = '243.18658280922432' hspace='5'><img src= stimuli/temporalOrder/0.png width = '386.6666666666667' height = '243.18658280922432' hspace='5'><img src= stimuli/temporalOrder/68.png width = '386.6666666666667' height = '243.18658280922432' hspace='5'><p>Press 1, 2 or 3.</p>","49","html-keyboard-response","16","616309","0.0-3.0-1.3","","temporalOrder","1","58"
"null","","null","html-keyboard-response","17","616810","0.0-3.0-2.3","","blank","",""
"3026.7949999979464","<img src= stimuli/temporalOrder/58.png width = '386.6666666666667' height = '243.18658280922432'><p>In which room was the object?</p><img src= stimuli/contextMemory/9.png width = '386.6666666666667' height = '243.18658280922432' hspace='5'><img src= stimuli/contextMemory/2.png width = '386.6666666666667' height = '243.18658280922432' hspace='5'><img src= stimuli/contextMemory/13.png width = '386.6666666666667' height = '243.18658280922432' hspace='5'><p>Press 1, 2 or 3.</p>","49","html-keyboard-response","18","619838","0.0-3.0-3.3","","contextMemory","2","58"
"null","<div style=""font-size:60px;"">+</div>","null","html-keyboard-response","19","620342","0.0-3.0-0.4","","fixation","",""
"14652.49500000209","<img src= stimuli/temporalOrder/31.png width = '386.6666666666667' height = '243.18658280922432'><p>What came after this object?</p><img src= stimuli/temporalOrder/1.png width = '386.6666666666667' height = '243.18658280922432' hspace='5'><img src= stimuli/temporalOrder/26.png width = '386.6666666666667' height = '243.18658280922432' hspace='5'><img src= stimuli/temporalOrder/11.png width = '386.6666666666667' height = '243.18658280922432' hspace='5'><p>Press 1, 2 or 3.</p>","49","html-keyboard-response","20","634996","0.0-3.0-1.4","","temporalOrder","1","31"
"null","","null","html-keyboard-response","21","635500","0.0-3.0-2.4","","blank","",""
"2485.6349999899976","<img src= stimuli/temporalOrder/31.png width = '386.6666666666667' height = '243.18658280922432'><p>In which room was the object?</p><img src= stimuli/contextMemory/6.png width = '386.6666666666667' height = '243.18658280922432' hspace='5'><img src= stimuli/contextMemory/21.png width = '386.6666666666667' height = '243.18658280922432' hspace='5'><img src= stimuli/contextMemory/26.png width = '386.6666666666667' height = '243.18658280922432' hspace='5'><p>Press 1, 2 or 3.</p>","51","html-keyboard-response","22","637987","0.0-3.0-3.4","","contextMemory","3","31"
"null","<div style=""font-size:60px;"">+</div>","null","html-keyboard-response","23","638489","0.0-3.0-0.5","","fixation","",""
"5693.879999991623","<img src= stimuli/temporalOrder/84.png width = '386.6666666666667' height = '243.18658280922432'><p>What came before this object?</p><img src= stimuli/temporalOrder/65.png width = '386.6666666666667' height = '243.18658280922432' hspace='5'><img src= stimuli/temporalOrder/6.png width = '386.6666666666667' height = '243.18658280922432' hspace='5'><img src= stimuli/temporalOrder/22.png width = '386.6666666666667' height = '243.18658280922432' hspace='5'><p>Press 1, 2 or 3.</p>","51","html-keyboard-response","24","644184","0.0-3.0-1.5","","temporalOrder","3","84"
"null","","null","html-keyboard-response","25","644685","0.0-3.0-2.5","","blank","",""
"2931.539999990491","<img src= stimuli/temporalOrder/84.png width = '386.6666666666667' height = '243.18658280922432'><p>In which room was the object?</p><img src= stimuli/contextMemory/35.png width = '386.6666666666667' height = '243.18658280922432' hspace='5'><img src= stimuli/contextMemory/7.png width = '386.6666666666667' height = '243.18658280922432' hspace='5'><img src= stimuli/contextMemory/27.png width = '386.6666666666667' height = '243.18658280922432' hspace='5'><p>Press 1, 2 or 3.</p>","51","html-keyboard-response","26","647618","0.0-3.0-3.5","","contextMemory","2","84"
"null","<div style=""font-size:60px;"">+</div>","null","html-keyboard-response","27","648120","0.0-3.0-0.6","","fixation","",""
"4620.649999997113","<img src= stimuli/temporalOrder/82.png width = '386.6666666666667' height = '243.18658280922432'><p>What came before this object?</p><img src= stimuli/temporalOrder/2.png width = '386.6666666666667' height = '243.18658280922432' hspace='5'><img src= stimuli/temporalOrder/24.png width = '386.6666666666667' height = '243.18658280922432' hspace='5'><img src= stimuli/temporalOrder/62.png width = '386.6666666666667' height = '243.18658280922432' hspace='5'><p>Press 1, 2 or 3.</p>","51","html-keyboard-response","28","652741","0.0-3.0-1.6","","temporalOrder","3","82"
"null","","null","html-keyboard-response","29","653246","0.0-3.0-2.6","","blank","",""
"2655.5699999880744","<img src= stimuli/temporalOrder/82.png width = '386.6666666666667' height = '243.18658280922432'><p>In which room was the object?</p><img src= stimuli/contextMemory/13.png width = '386.6666666666667' height = '243.18658280922432' hspace='5'><img src= stimuli/contextMemory/33.png width = '386.6666666666667' height = '243.18658280922432' hspace='5'><img src= stimuli/contextMemory/31.png width = '386.6666666666667' height = '243.18658280922432' hspace='5'><p>Press 1, 2 or 3.</p>","50","html-keyboard-response","30","655903","0.0-3.0-3.6","","contextMemory","2","82"
"null","<div style=""font-size:60px;"">+</div>","null","html-keyboard-response","31","656405","0.0-3.0-0.7","","fixation","",""
"2133.975000004284","<img src= stimuli/temporalOrder/13.png width = '386.6666666666667' height = '243.18658280922432'><p>What came before this object?</p><img src= stimuli/temporalOrder/68.png width = '386.6666666666667' height = '243.18658280922432' hspace='5'><img src= stimuli/temporalOrder/37.png width = '386.6666666666667' height = '243.18658280922432' hspace='5'><img src= stimuli/temporalOrder/58.png width = '386.6666666666667' height = '243.18658280922432' hspace='5'><p>Press 1, 2 or 3.</p>","49","html-keyboard-response","32","658540","0.0-3.0-1.7","","temporalOrder","1","13"
"null","","null","html-keyboard-response","33","659041","0.0-3.0-2.7","","blank","",""
"1865.894999995362","<img src= stimuli/temporalOrder/13.png width = '386.6666666666667' height = '243.18658280922432'><p>In which room was the object?</p><img src= stimuli/contextMemory/15.png width = '386.6666666666667' height = '243.18658280922432' hspace='5'><img src= stimuli/contextMemory/38.png width = '386.6666666666667' height = '243.18658280922432' hspace='5'><img src= stimuli/contextMemory/40.png width = '386.6666666666667' height = '243.18658280922432' hspace='5'><p>Press 1, 2 or 3.</p>","51","html-keyboard-response","34","660908","0.0-3.0-3.7","","contextMemory","3","13"
"null","<div style=""font-size:60px;"">+</div>","null","html-keyboard-response","35","661412","0.0-3.0-0.8","","fixation","",""
"11971.940000003087","<img src= stimuli/temporalOrder/38.png width = '386.6666666666667' height = '243.18658280922432'><p>What came after this object?</p><img src= stimuli/temporalOrder/52.png width = '386.6666666666667' height = '243.18658280922432' hspace='5'><img src= stimuli/temporalOrder/69.png width = '386.6666666666667' height = '243.18658280922432' hspace='5'><img src= stimuli/temporalOrder/42.png width = '386.6666666666667' height = '243.18658280922432' hspace='5'><p>Press 1, 2 or 3.</p>","51","html-keyboard-response","36","673385","0.0-3.0-1.8","","temporalOrder","3","38"
"null","","null","html-keyboard-response","37","673890","0.0-3.0-2.8","","blank","",""
"1958.3500000007916","<img src= stimuli/temporalOrder/38.png width = '386.6666666666667' height = '243.18658280922432'><p>In which room was the object?</p><img src= stimuli/contextMemory/20.png width = '386.6666666666667' height = '243.18658280922432' hspace='5'><img src= stimuli/contextMemory/22.png width = '386.6666666666667' height = '243.18658280922432' hspace='5'><img src= stimuli/contextMemory/43.png width = '386.6666666666667' height = '243.18658280922432' hspace='5'><p>Press 1, 2 or 3.</p>","50","html-keyboard-response","38","675850","0.0-3.0-3.8","","contextMemory","3","38"
"null","<div style=""font-size:60px;"">+</div>","null","html-keyboard-response","39","676351","0.0-3.0-0.9","","fixation","",""
"2884.7399999940535","<img src= stimuli/temporalOrder/1.png width = '386.6666666666667' height = '243.18658280922432'><p>What came after this object?</p><img src= stimuli/temporalOrder/59.png width = '386.6666666666667' height = '243.18658280922432' hspace='5'><img src= stimuli/temporalOrder/44.png width = '386.6666666666667' height = '243.18658280922432' hspace='5'><img src= stimuli/temporalOrder/64.png width = '386.6666666666667' height = '243.18658280922432' hspace='5'><p>Press 1, 2 or 3.</p>","49","html-keyboard-response","40","679237","0.0-3.0-1.9","","temporalOrder","1","1"
"null","","null","html-keyboard-response","41","679738","0.0-3.0-2.9","","blank","",""
"1159.879999991972","<img src= stimuli/temporalOrder/1.png width = '386.6666666666667' height = '243.18658280922432'><p>In which room was the object?</p><img src= stimuli/contextMemory/27.png width = '386.6666666666667' height = '243.18658280922432' hspace='5'><img src= stimuli/contextMemory/31.png width = '386.6666666666667' height = '243.18658280922432' hspace='5'><img src= stimuli/contextMemory/33.png width = '386.6666666666667' height = '243.18658280922432' hspace='5'><p>Press 1, 2 or 3.</p>","49","html-keyboard-response","42","680899","0.0-3.0-3.9","","contextMemory","1","1"
"null","<div style=""font-size:60px;"">+</div>","null","html-keyboard-response","43","681401","0.0-3.0-0.10","","fixation","",""
"12114.855000007083","<img src= stimuli/temporalOrder/76.png width = '386.6666666666667' height = '243.18658280922432'><p>What came before this object?</p><img src= stimuli/temporalOrder/38.png width = '386.6666666666667' height = '243.18658280922432' hspace='5'><img src= stimuli/temporalOrder/13.png width = '386.6666666666667' height = '243.18658280922432' hspace='5'><img src= stimuli/temporalOrder/15.png width = '386.6666666666667' height = '243.18658280922432' hspace='5'><p>Press 1, 2 or 3.</p>","51","html-keyboard-response","44","693517","0.0-3.0-1.10","","temporalOrder","3","76"
"null","","null","html-keyboard-response","45","694018","0.0-3.0-2.10","","blank","",""
"1352.9600000038045","<img src= stimuli/temporalOrder/76.png width = '386.6666666666667' height = '243.18658280922432'><p>In which room was the object?</p><img src= stimuli/contextMemory/34.png width = '386.6666666666667' height = '243.18658280922432' hspace='5'><img src= stimuli/contextMemory/19.png width = '386.6666666666667' height = '243.18658280922432' hspace='5'><img src= stimuli/contextMemory/7.png width = '386.6666666666667' height = '243.18658280922432' hspace='5'><p>Press 1, 2 or 3.</p>","50","html-keyboard-response","46","695373","0.0-3.0-3.10","","contextMemory","2","76"
"null","<div style=""font-size:60px;"">+</div>","null","html-keyboard-response","47","695876","0.0-3.0-0.11","","fixation","",""
"9300.204999992275","<img src= stimuli/temporalOrder/4.png width = '386.6666666666667' height = '243.18658280922432'><p>What came after this object?</p><img src= stimuli/temporalOrder/39.png width = '386.6666666666667' height = '243.18658280922432' hspace='5'><img src= stimuli/temporalOrder/28.png width = '386.6666666666667' height = '243.18658280922432' hspace='5'><img src= stimuli/temporalOrder/31.png width = '386.6666666666667' height = '243.18658280922432' hspace='5'><p>Press 1, 2 or 3.</p>","49","html-keyboard-response","48","705177","0.0-3.0-1.11","","temporalOrder","1","4"
"null","","null","html-keyboard-response","49","705683","0.0-3.0-2.11","","blank","",""
"2950.270000001183","<img src= stimuli/temporalOrder/4.png width = '386.6666666666667' height = '243.18658280922432'><p>In which room was the object?</p><img src= stimuli/contextMemory/27.png width = '386.6666666666667' height = '243.18658280922432' hspace='5'><img src= stimuli/contextMemory/23.png width = '386.6666666666667' height = '243.18658280922432' hspace='5'><img src= stimuli/contextMemory/1.png width = '386.6666666666667' height = '243.18658280922432' hspace='5'><p>Press 1, 2 or 3.</p>","51","html-keyboard-response","50","708635","0.0-3.0-3.11","","contextMemory","3","4"
"null","<div style=""font-size:60px;"">+</div>","null","html-keyboard-response","51","709138","0.0-3.0-0.12","","fixation","",""
"5306.750000003376","<img src= stimuli/temporalOrder/49.png width = '386.6666666666667' height = '243.18658280922432'><p>What came after this object?</p><img src= stimuli/temporalOrder/31.png width = '386.6666666666667' height = '243.18658280922432' hspace='5'><img src= stimuli/temporalOrder/53.png width = '386.6666666666667' height = '243.18658280922432' hspace='5'><img src= stimuli/temporalOrder/85.png width = '386.6666666666667' height = '243.18658280922432' hspace='5'><p>Press 1, 2 or 3.</p>","49","html-keyboard-response","52","714446","0.0-3.0-1.12","","temporalOrder","1","49"
"null","","null","html-keyboard-response","53","714949","0.0-3.0-2.12","","blank","",""
"4520.055000000866","<img src= stimuli/temporalOrder/49.png width = '386.6666666666667' height = '243.18658280922432'><p>In which room was the object?</p><img src= stimuli/contextMemory/22.png width = '386.6666666666667' height = '243.18658280922432' hspace='5'><img src= stimuli/contextMemory/10.png width = '386.6666666666667' height = '243.18658280922432' hspace='5'><img src= stimuli/contextMemory/26.png width = '386.6666666666667' height = '243.18658280922432' hspace='5'><p>Press 1, 2 or 3.</p>","49","html-keyboard-response","54","719471","0.0-3.0-3.12","","contextMemory","3","49"
"null","<div style=""font-size:60px;"">+</div>","null","html-keyboard-response","55","719976","0.0-3.0-0.13","","fixation","",""
"7136.555000004591","<img src= stimuli/temporalOrder/51.png width = '386.6666666666667' height = '243.18658280922432'><p>What came before this object?</p><img src= stimuli/temporalOrder/30.png width = '386.6666666666667' height = '243.18658280922432' hspace='5'><img src= stimuli/temporalOrder/76.png width = '386.6666666666667' height = '243.18658280922432' hspace='5'><img src= stimuli/temporalOrder/82.png width = '386.6666666666667' height = '243.18658280922432' hspace='5'><p>Press 1, 2 or 3.</p>","50","html-keyboard-response","56","727115","0.0-3.0-1.13","","temporalOrder","2","51"
"null","","null","html-keyboard-response","57","727616","0.0-3.0-2.13","","blank","",""
"2171.8700000055833","<img src= stimuli/temporalOrder/51.png width = '386.6666666666667' height = '243.18658280922432'><p>In which room was the object?</p><img src= stimuli/contextMemory/20.png width = '386.6666666666667' height = '243.18658280922432' hspace='5'><img src= stimuli/contextMemory/3.png width = '386.6666666666667' height = '243.18658280922432' hspace='5'><img src= stimuli/contextMemory/30.png width = '386.6666666666667' height = '243.18658280922432' hspace='5'><p>Press 1, 2 or 3.</p>","50","html-keyboard-response","58","729790","0.0-3.0-3.13","","contextMemory","1","51"
"null","<div style=""font-size:60px;"">+</div>","null","html-keyboard-response","59","730292","0.0-3.0-0.14","","fixation","",""
"8039.63999998814","<img src= stimuli/temporalOrder/34.png width = '386.6666666666667' height = '243.18658280922432'><p>What came after this object?</p><img src= stimuli/temporalOrder/16.png width = '386.6666666666667' height = '243.18658280922432' hspace='5'><img src= stimuli/temporalOrder/32.png width = '386.6666666666667' height = '243.18658280922432' hspace='5'><img src= stimuli/temporalOrder/59.png width = '386.6666666666667' height = '243.18658280922432' hspace='5'><p>Press 1, 2 or 3.</p>","49","html-keyboard-response","60","738333","0.0-3.0-1.14","","temporalOrder","1","34"
"null","","null","html-keyboard-response","61","738835","0.0-3.0-2.14","","blank","",""
"2816.464999996242","<img src= stimuli/temporalOrder/34.png width = '386.6666666666667' height = '243.18658280922432'><p>In which room was the object?</p><img src= stimuli/contextMemory/38.png width = '386.6666666666667' height = '243.18658280922432' hspace='5'><img src= stimuli/contextMemory/18.png width = '386.6666666666667' height = '243.18658280922432' hspace='5'><img src= stimuli/contextMemory/35.png width = '386.6666666666667' height = '243.18658280922432' hspace='5'><p>Press 1, 2 or 3.</p>","51","html-keyboard-response","62","741653","0.0-3.0-3.14","","contextMemory","3","34"
"null","<div style=""font-size:60px;"">+</div>","null","html-keyboard-response","63","742157","0.0-3.0-0.15","","fixation","",""
"4625","<img src= stimuli/temporalOrder/39.png width = '386.6666666666667' height = '243.18658280922432'><p>What came before this object?</p><img src= stimuli/temporalOrder/19.png width = '386.6666666666667' height = '243.18658280922432' hspace='5'><img src= stimuli/temporalOrder/4.png width = '386.6666666666667' height = '243.18658280922432' hspace='5'><img src= stimuli/temporalOrder/59.png width = '386.6666666666667' height = '243.18658280922432' hspace='5'><p>Press 1, 2 or 3.</p>","50","html-keyboard-response","64","746783","0.0-3.0-1.15","","temporalOrder","2","39"
"null","","null","html-keyboard-response","65","747288","0.0-3.0-2.15","","blank","",""
"4915.215000000899","<img src= stimuli/temporalOrder/39.png width = '386.6666666666667' height = '243.18658280922432'><p>In which room was the object?</p><img src= stimuli/contextMemory/2.png width = '386.6666666666667' height = '243.18658280922432' hspace='5'><img src= stimuli/contextMemory/25.png width = '386.6666666666667' height = '243.18658280922432' hspace='5'><img src= stimuli/contextMemory/18.png width = '386.6666666666667' height = '243.18658280922432' hspace='5'><p>Press 1, 2 or 3.</p>","49","html-keyboard-response","66","752205","0.0-3.0-3.15","","contextMemory","1","39"
"null","<div style=""font-size:60px;"">+</div>","null","html-keyboard-response","67","752706","0.0-3.0-0.16","","fixation","",""
"25219.645000004675","<img src= stimuli/temporalOrder/15.png width = '386.6666666666667' height = '243.18658280922432'><p>What came after this object?</p><img src= stimuli/temporalOrder/72.png width = '386.6666666666667' height = '243.18658280922432' hspace='5'><img src= stimuli/temporalOrder/76.png width = '386.6666666666667' height = '243.18658280922432' hspace='5'><img src= stimuli/temporalOrder/35.png width = '386.6666666666667' height = '243.18658280922432' hspace='5'><p>Press 1, 2 or 3.</p>","49","html-keyboard-response","68","777928","0.0-3.0-1.16","","temporalOrder","2","15"
"null","","null","html-keyboard-response","69","778432","0.0-3.0-2.16","","blank","",""
"2068.424999990384","<img src= stimuli/temporalOrder/15.png width = '386.6666666666667' height = '243.18658280922432'><p>In which room was the object?</p><img src= stimuli/contextMemory/1.png width = '386.6666666666667' height = '243.18658280922432' hspace='5'><img src= stimuli/contextMemory/44.png width = '386.6666666666667' height = '243.18658280922432' hspace='5'><img src= stimuli/contextMemory/19.png width = '386.6666666666667' height = '243.18658280922432' hspace='5'><p>Press 1, 2 or 3.</p>","49","html-keyboard-response","70","780502","0.0-3.0-3.16","","contextMemory","3","15"
"null","<div style=""font-size:60px;"">+</div>","null","html-keyboard-response","71","781006","0.0-3.0-0.17","","fixation","",""
"7292.155000002822","<img src= stimuli/temporalOrder/71.png width = '386.6666666666667' height = '243.18658280922432'><p>What came before this object?</p><img src= stimuli/temporalOrder/18.png width = '386.6666666666667' height = '243.18658280922432' hspace='5'><img src= stimuli/temporalOrder/44.png width = '386.6666666666667' height = '243.18658280922432' hspace='5'><img src= stimuli/temporalOrder/79.png width = '386.6666666666667' height = '243.18658280922432' hspace='5'><p>Press 1, 2 or 3.</p>","50","html-keyboard-response","72","788300","0.0-3.0-1.17","","temporalOrder","2","71"
"null","","null","html-keyboard-response","73","788804","0.0-3.0-2.17","","blank","",""
"5834.159999998519","<img src= stimuli/temporalOrder/71.png width = '386.6666666666667' height = '243.18658280922432'><p>In which room was the object?</p><img src= stimuli/contextMemory/4.png width = '386.6666666666667' height = '243.18658280922432' hspace='5'><img src= stimuli/contextMemory/14.png width = '386.6666666666667' height = '243.18658280922432' hspace='5'><img src= stimuli/contextMemory/40.png width = '386.6666666666667' height = '243.18658280922432' hspace='5'><p>Press 1, 2 or 3.</p>","51","html-keyboard-response","74","794640","0.0-3.0-3.17","","contextMemory","1","71"
"null","<div style=""font-size:60px;"">+</div>","null","html-keyboard-response","75","795143","0.0-3.0-0.18","","fixation","",""
"6407.630000001518","<img src= stimuli/temporalOrder/80.png width = '386.6666666666667' height = '243.18658280922432'><p>What came before this object?</p><img src= stimuli/temporalOrder/20.png width = '386.6666666666667' height = '243.18658280922432' hspace='5'><img src= stimuli/temporalOrder/29.png width = '386.6666666666667' height = '243.18658280922432' hspace='5'><img src= stimuli/temporalOrder/8.png width = '386.6666666666667' height = '243.18658280922432' hspace='5'><p>Press 1, 2 or 3.</p>","50","html-keyboard-response","76","801552","0.0-3.0-1.18","","temporalOrder","2","80"
"null","","null","html-keyboard-response","77","802055","0.0-3.0-2.18","","blank","",""
"3407.4600000021746","<img src= stimuli/temporalOrder/80.png width = '386.6666666666667' height = '243.18658280922432'><p>In which room was the object?</p><img src= stimuli/contextMemory/2.png width = '386.6666666666667' height = '243.18658280922432' hspace='5'><img src= stimuli/contextMemory/21.png width = '386.6666666666667' height = '243.18658280922432' hspace='5'><img src= stimuli/contextMemory/38.png width = '386.6666666666667' height = '243.18658280922432' hspace='5'><p>Press 1, 2 or 3.</p>","50","html-keyboard-response","78","805465","0.0-3.0-3.18","","contextMemory","2","80"
"null","<div style=""font-size:60px;"">+</div>","null","html-keyboard-response","79","805970","0.0-3.0-0.19","","fixation","",""
"10684.389999994892","<img src= stimuli/temporalOrder/64.png width = '386.6666666666667' height = '243.18658280922432'><p>What came before this object?</p><img src= stimuli/temporalOrder/29.png width = '386.6666666666667' height = '243.18658280922432' hspace='5'><img src= stimuli/temporalOrder/83.png width = '386.6666666666667' height = '243.18658280922432' hspace='5'><img src= stimuli/temporalOrder/32.png width = '386.6666666666667' height = '243.18658280922432' hspace='5'><p>Press 1, 2 or 3.</p>","50","html-keyboard-response","80","816655","0.0-3.0-1.19","","temporalOrder","2","64"
"null","","null","html-keyboard-response","81","817160","0.0-3.0-2.19","","blank","",""
"4582.119999991846","<img src= stimuli/temporalOrder/64.png width = '386.6666666666667' height = '243.18658280922432'><p>In which room was the object?</p><img src= stimuli/contextMemory/13.png width = '386.6666666666667' height = '243.18658280922432' hspace='5'><img src= stimuli/contextMemory/29.png width = '386.6666666666667' height = '243.18658280922432' hspace='5'><img src= stimuli/contextMemory/28.png width = '386.6666666666667' height = '243.18658280922432' hspace='5'><p>Press 1, 2 or 3.</p>","49","html-keyboard-response","82","821744","0.0-3.0-3.19","","contextMemory","1","64"
"null","<div style=""font-size:60px;"">+</div>","null","html-keyboard-response","83","822249","0.0-3.0-0.20","","fixation","",""
"4221.789999995963","<img src= stimuli/temporalOrder/9.png width = '386.6666666666667' height = '243.18658280922432'><p>What came after this object?</p><img src= stimuli/temporalOrder/42.png width = '386.6666666666667' height = '243.18658280922432' hspace='5'><img src= stimuli/temporalOrder/11.png width = '386.6666666666667' height = '243.18658280922432' hspace='5'><img src= stimuli/temporalOrder/7.png width = '386.6666666666667' height = '243.18658280922432' hspace='5'><p>Press 1, 2 or 3.</p>","50","html-keyboard-response","84","826473","0.0-3.0-1.20","","temporalOrder","2","9"
"null","","null","html-keyboard-response","85","826976","0.0-3.0-2.20","","blank","",""
"2448.664999988978","<img src= stimuli/temporalOrder/9.png width = '386.6666666666667' height = '243.18658280922432'><p>In which room was the object?</p><img src= stimuli/contextMemory/15.png width = '386.6666666666667' height = '243.18658280922432' hspace='5'><img src= stimuli/contextMemory/26.png width = '386.6666666666667' height = '243.18658280922432' hspace='5'><img src= stimuli/contextMemory/42.png width = '386.6666666666667' height = '243.18658280922432' hspace='5'><p>Press 1, 2 or 3.</p>","50","html-keyboard-response","86","829426","0.0-3.0-3.20","","contextMemory","3","9"
"null","<div style=""font-size:60px;"">+</div>","null","html-keyboard-response","87","829931","0.0-3.0-0.21","","fixation","",""
"7851.444999992964","<img src= stimuli/temporalOrder/43.png width = '386.6666666666667' height = '243.18658280922432'><p>What came before this object?</p><img src= stimuli/temporalOrder/9.png width = '386.6666666666667' height = '243.18658280922432' hspace='5'><img src= stimuli/temporalOrder/8.png width = '386.6666666666667' height = '243.18658280922432' hspace='5'><img src= stimuli/temporalOrder/32.png width = '386.6666666666667' height = '243.18658280922432' hspace='5'><p>Press 1, 2 or 3.</p>","51","html-keyboard-response","88","837785","0.0-3.0-1.21","","temporalOrder","3","43"
"null","","null","html-keyboard-response","89","838285","0.0-3.0-2.21","","blank","",""
"3341.950000001816","<img src= stimuli/temporalOrder/43.png width = '386.6666666666667' height = '243.18658280922432'><p>In which room was the object?</p><img src= stimuli/contextMemory/29.png width = '386.6666666666667' height = '243.18658280922432' hspace='5'><img src= stimuli/contextMemory/33.png width = '386.6666666666667' height = '243.18658280922432' hspace='5'><img src= stimuli/contextMemory/12.png width = '386.6666666666667' height = '243.18658280922432' hspace='5'><p>Press 1, 2 or 3.</p>","51","html-keyboard-response","90","841629","0.0-3.0-3.21","","contextMemory","3","43"
"null","<div style=""font-size:60px;"">+</div>","null","html-keyboard-response","91","842132","0.0-3.0-0.22","","fixation","",""
"16428.105000013602","<img src= stimuli/temporalOrder/0.png width = '386.6666666666667' height = '243.18658280922432'><p>What came after this object?</p><img src= stimuli/temporalOrder/77.png width = '386.6666666666667' height = '243.18658280922432' hspace='5'><img src= stimuli/temporalOrder/83.png width = '386.6666666666667' height = '243.18658280922432' hspace='5'><img src= stimuli/temporalOrder/8.png width = '386.6666666666667' height = '243.18658280922432' hspace='5'><p>Press 1, 2 or 3.</p>","49","html-keyboard-response","92","858562","0.0-3.0-1.22","","temporalOrder","3","0"
"null","","null","html-keyboard-response","93","859064","0.0-3.0-2.22","","blank","",""
"2734.54999999376","<img src= stimuli/temporalOrder/0.png width = '386.6666666666667' height = '243.18658280922432'><p>In which room was the object?</p><img src= stimuli/contextMemory/43.png width = '386.6666666666667' height = '243.18658280922432' hspace='5'><img src= stimuli/contextMemory/37.png width = '386.6666666666667' height = '243.18658280922432' hspace='5'><img src= stimuli/contextMemory/9.png width = '386.6666666666667' height = '243.18658280922432' hspace='5'><p>Press 1, 2 or 3.</p>","51","html-keyboard-response","94","861800","0.0-3.0-3.22","","contextMemory","3","0"
"null","<div style=""font-size:60px;"">+</div>","null","html-keyboard-response","95","862303","0.0-3.0-0.23","","fixation","",""
"4389.6850000019185","<img src= stimuli/temporalOrder/45.png width = '386.6666666666667' height = '243.18658280922432'><p>What came after this object?</p><img src= stimuli/temporalOrder/48.png width = '386.6666666666667' height = '243.18658280922432' hspace='5'><img src= stimuli/temporalOrder/66.png width = '386.6666666666667' height = '243.18658280922432' hspace='5'><img src= stimuli/temporalOrder/6.png width = '386.6666666666667' height = '243.18658280922432' hspace='5'><p>Press 1, 2 or 3.</p>","49","html-keyboard-response","96","866694","0.0-3.0-1.23","","temporalOrder","1","45"
"null","","null","html-keyboard-response","97","867198","0.0-3.0-2.23","","blank","",""
"9747.180000005756","<img src= stimuli/temporalOrder/45.png width = '386.6666666666667' height = '243.18658280922432'><p>In which room was the object?</p><img src= stimuli/contextMemory/5.png width = '386.6666666666667' height = '243.18658280922432' hspace='5'><img src= stimuli/contextMemory/19.png width = '386.6666666666667' height = '243.18658280922432' hspace='5'><img src= stimuli/contextMemory/28.png width = '386.6666666666667' height = '243.18658280922432' hspace='5'><p>Press 1, 2 or 3.</p>","50","html-keyboard-response","98","876947","0.0-3.0-3.23","","contextMemory","3","45"
"null","<div style=""font-size:60px;"">+</div>","null","html-keyboard-response","99","877453","0.0-3.0-0.24","","fixation","",""
"21822.979999997187","<img src= stimuli/temporalOrder/26.png width = '386.6666666666667' height = '243.18658280922432'><p>What came before this object?</p><img src= stimuli/temporalOrder/52.png width = '386.6666666666667' height = '243.18658280922432' hspace='5'><img src= stimuli/temporalOrder/82.png width = '386.6666666666667' height = '243.18658280922432' hspace='5'><img src= stimuli/temporalOrder/80.png width = '386.6666666666667' height = '243.18658280922432' hspace='5'><p>Press 1, 2 or 3.</p>","50","html-keyboard-response","100","899278","0.0-3.0-1.24","","temporalOrder","3","26"
"null","","null","html-keyboard-response","101","899779","0.0-3.0-2.24","","blank","",""
"5145.365000003949","<img src= stimuli/temporalOrder/26.png width = '386.6666666666667' height = '243.18658280922432'><p>In which room was the object?</p><img src= stimuli/contextMemory/21.png width = '386.6666666666667' height = '243.18658280922432' hspace='5'><img src= stimuli/contextMemory/22.png width = '386.6666666666667' height = '243.18658280922432' hspace='5'><img src= stimuli/contextMemory/17.png width = '386.6666666666667' height = '243.18658280922432' hspace='5'><p>Press 1, 2 or 3.</p>","51","html-keyboard-response","102","904926","0.0-3.0-3.24","","contextMemory","2","26"
"null","<div style=""font-size:60px;"">+</div>","null","html-keyboard-response","103","905427","0.0-3.0-0.25","","fixation","",""
"17028.669999999693","<img src= stimuli/temporalOrder/36.png width = '386.6666666666667' height = '243.18658280922432'><p>What came before this object?</p><img src= stimuli/temporalOrder/17.png width = '386.6666666666667' height = '243.18658280922432' hspace='5'><img src= stimuli/temporalOrder/33.png width = '386.6666666666667' height = '243.18658280922432' hspace='5'><img src= stimuli/temporalOrder/67.png width = '386.6666666666667' height = '243.18658280922432' hspace='5'><p>Press 1, 2 or 3.</p>","49","html-keyboard-response","104","922457","0.0-3.0-1.25","","temporalOrder","1","36"
"null","","null","html-keyboard-response","105","922961","0.0-3.0-2.25","","blank","",""
"3483.6100000102306","<img src= stimuli/temporalOrder/36.png width = '386.6666666666667' height = '243.18658280922432'><p>In which room was the object?</p><img src= stimuli/contextMemory/15.png width = '386.6666666666667' height = '243.18658280922432' hspace='5'><img src= stimuli/contextMemory/17.png width = '386.6666666666667' height = '243.18658280922432' hspace='5'><img src= stimuli/contextMemory/10.png width = '386.6666666666667' height = '243.18658280922432' hspace='5'><p>Press 1, 2 or 3.</p>","51","html-keyboard-response","106","926446","0.0-3.0-3.25","","contextMemory","2","36"
"null","<div style=""font-size:60px;"">+</div>","null","html-keyboard-response","107","926947","0.0-3.0-0.26","","fixation","",""
"3442.175000003772","<img src= stimuli/temporalOrder/33.png width = '386.6666666666667' height = '243.18658280922432'><p>What came after this object?</p><img src= stimuli/temporalOrder/63.png width = '386.6666666666667' height = '243.18658280922432' hspace='5'><img src= stimuli/temporalOrder/84.png width = '386.6666666666667' height = '243.18658280922432' hspace='5'><img src= stimuli/temporalOrder/24.png width = '386.6666666666667' height = '243.18658280922432' hspace='5'><p>Press 1, 2 or 3.</p>","49","html-keyboard-response","108","930391","0.0-3.0-1.26","","temporalOrder","3","33"
"null","","null","html-keyboard-response","109","930896","0.0-3.0-2.26","","blank","",""
"1590.7049999950686","<img src= stimuli/temporalOrder/33.png width = '386.6666666666667' height = '243.18658280922432'><p>In which room was the object?</p><img src= stimuli/contextMemory/44.png width = '386.6666666666667' height = '243.18658280922432' hspace='5'><img src= stimuli/contextMemory/24.png width = '386.6666666666667' height = '243.18658280922432' hspace='5'><img src= stimuli/contextMemory/4.png width = '386.6666666666667' height = '243.18658280922432' hspace='5'><p>Press 1, 2 or 3.</p>","49","html-keyboard-response","110","932488","0.0-3.0-3.26","","contextMemory","2","33"
"null","<div style=""font-size:60px;"">+</div>","null","html-keyboard-response","111","932990","0.0-3.0-0.27","","fixation","",""
"5683.585000006133","<img src= stimuli/temporalOrder/25.png width = '386.6666666666667' height = '243.18658280922432'><p>What came before this object?</p><img src= stimuli/temporalOrder/63.png width = '386.6666666666667' height = '243.18658280922432' hspace='5'><img src= stimuli/temporalOrder/60.png width = '386.6666666666667' height = '243.18658280922432' hspace='5'><img src= stimuli/temporalOrder/41.png width = '386.6666666666667' height = '243.18658280922432' hspace='5'><p>Press 1, 2 or 3.</p>","51","html-keyboard-response","112","938675","0.0-3.0-1.27","","temporalOrder","3","25"
"null","","null","html-keyboard-response","113","939179","0.0-3.0-2.27","","blank","",""
"1331.7450000031386","<img src= stimuli/temporalOrder/25.png width = '386.6666666666667' height = '243.18658280922432'><p>In which room was the object?</p><img src= stimuli/contextMemory/32.png width = '386.6666666666667' height = '243.18658280922432' hspace='5'><img src= stimuli/contextMemory/38.png width = '386.6666666666667' height = '243.18658280922432' hspace='5'><img src= stimuli/contextMemory/22.png width = '386.6666666666667' height = '243.18658280922432' hspace='5'><p>Press 1, 2 or 3.</p>","51","html-keyboard-response","114","940512","0.0-3.0-3.27","","contextMemory","1","25"
"null","<div style=""font-size:60px;"">+</div>","null","html-keyboard-response","115","941013","0.0-3.0-0.28","","fixation","",""
"9049.62499999965","<img src= stimuli/temporalOrder/21.png width = '386.6666666666667' height = '243.18658280922432'><p>What came after this object?</p><img src= stimuli/temporalOrder/46.png width = '386.6666666666667' height = '243.18658280922432' hspace='5'><img src= stimuli/temporalOrder/75.png width = '386.6666666666667' height = '243.18658280922432' hspace='5'><img src= stimuli/temporalOrder/16.png width = '386.6666666666667' height = '243.18658280922432' hspace='5'><p>Press 1, 2 or 3.</p>","50","html-keyboard-response","116","950064","0.0-3.0-1.28","","temporalOrder","2","21"
"null","","null","html-keyboard-response","117","950568","0.0-3.0-2.28","","blank","",""
"1447.7650000044378","<img src= stimuli/temporalOrder/21.png width = '386.6666666666667' height = '243.18658280922432'><p>In which room was the object?</p><img src= stimuli/contextMemory/37.png width = '386.6666666666667' height = '243.18658280922432' hspace='5'><img src= stimuli/contextMemory/7.png width = '386.6666666666667' height = '243.18658280922432' hspace='5'><img src= stimuli/contextMemory/1.png width = '386.6666666666667' height = '243.18658280922432' hspace='5'><p>Press 1, 2 or 3.</p>","49","html-keyboard-response","118","952017","0.0-3.0-3.28","","contextMemory","1","21"
"null","<div style=""font-size:60px;"">+</div>","null","html-keyboard-response","119","952521","0.0-3.0-0.29","","fixation","",""
"5933.515000011539","<img src= stimuli/temporalOrder/53.png width = '386.6666666666667' height = '243.18658280922432'><p>What came before this object?</p><img src= stimuli/temporalOrder/26.png width = '386.6666666666667' height = '243.18658280922432' hspace='5'><img src= stimuli/temporalOrder/22.png width = '386.6666666666667' height = '243.18658280922432' hspace='5'><img src= stimuli/temporalOrder/64.png width = '386.6666666666667' height = '243.18658280922432' hspace='5'><p>Press 1, 2 or 3.</p>","51","html-keyboard-response","120","958456","0.0-3.0-1.29","","temporalOrder","3","53"
"null","","null","html-keyboard-response","121","958957","0.0-3.0-2.29","","blank","",""
"3038.574999998673","<img src= stimuli/temporalOrder/53.png width = '386.6666666666667' height = '243.18658280922432'><p>In which room was the object?</p><img src= stimuli/contextMemory/21.png width = '386.6666666666667' height = '243.18658280922432' hspace='5'><img src= stimuli/contextMemory/13.png width = '386.6666666666667' height = '243.18658280922432' hspace='5'><img src= stimuli/contextMemory/12.png width = '386.6666666666667' height = '243.18658280922432' hspace='5'><p>Press 1, 2 or 3.</p>","50","html-keyboard-response","122","961997","0.0-3.0-3.29","","contextMemory","2","53"
"null","<div style=""font-size:60px;"">+</div>","null","html-keyboard-response","123","962502","0.0-3.0-0.30","","fixation","",""
"5059.239999987767","<img src= stimuli/temporalOrder/7.png width = '386.6666666666667' height = '243.18658280922432'><p>What came before this object?</p><img src= stimuli/temporalOrder/87.png width = '386.6666666666667' height = '243.18658280922432' hspace='5'><img src= stimuli/temporalOrder/19.png width = '386.6666666666667' height = '243.18658280922432' hspace='5'><img src= stimuli/temporalOrder/85.png width = '386.6666666666667' height = '243.18658280922432' hspace='5'><p>Press 1, 2 or 3.</p>","50","html-keyboard-response","124","967562","0.0-3.0-1.30","","temporalOrder","2","7"
"null","","null","html-keyboard-response","125","968067","0.0-3.0-2.30","","blank","",""
"1154.370000003837","<img src= stimuli/temporalOrder/7.png width = '386.6666666666667' height = '243.18658280922432'><p>In which room was the object?</p><img src= stimuli/contextMemory/34.png width = '386.6666666666667' height = '243.18658280922432' hspace='5'><img src= stimuli/contextMemory/40.png width = '386.6666666666667' height = '243.18658280922432' hspace='5'><img src= stimuli/contextMemory/41.png width = '386.6666666666667' height = '243.18658280922432' hspace='5'><p>Press 1, 2 or 3.</p>","51","html-keyboard-response","126","969223","0.0-3.0-3.30","","contextMemory","3","7"
"null","<div style=""font-size:60px;"">+</div>","null","html-keyboard-response","127","969724","0.0-3.0-0.31","","fixation","",""
"5748.414999994566","<img src= stimuli/temporalOrder/40.png width = '386.6666666666667' height = '243.18658280922432'><p>What came after this object?</p><img src= stimuli/temporalOrder/71.png width = '386.6666666666667' height = '243.18658280922432' hspace='5'><img src= stimuli/temporalOrder/53.png width = '386.6666666666667' height = '243.18658280922432' hspace='5'><img src= stimuli/temporalOrder/18.png width = '386.6666666666667' height = '243.18658280922432' hspace='5'><p>Press 1, 2 or 3.</p>","51","html-keyboard-response","128","975473","0.0-3.0-1.31","","temporalOrder","3","40"
"null","","null","html-keyboard-response","129","975978","0.0-3.0-2.31","","blank","",""
"3035.5299999937415","<img src= stimuli/temporalOrder/40.png width = '386.6666666666667' height = '243.18658280922432'><p>In which room was the object?</p><img src= stimuli/contextMemory/30.png width = '386.6666666666667' height = '243.18658280922432' hspace='5'><img src= stimuli/contextMemory/36.png width = '386.6666666666667' height = '243.18658280922432' hspace='5'><img src= stimuli/contextMemory/19.png width = '386.6666666666667' height = '243.18658280922432' hspace='5'><p>Press 1, 2 or 3.</p>","51","html-keyboard-response","130","979015","0.0-3.0-3.31","","contextMemory","1","40"
"null","<div style=""font-size:60px;"">+</div>","null","html-keyboard-response","131","979517","0.0-3.0-0.32","","fixation","",""
"6649.23500000441","<img src= stimuli/temporalOrder/41.png width = '386.6666666666667' height = '243.18658280922432'><p>What came after this object?</p><img src= stimuli/temporalOrder/64.png width = '386.6666666666667' height = '243.18658280922432' hspace='5'><img src= stimuli/temporalOrder/72.png width = '386.6666666666667' height = '243.18658280922432' hspace='5'><img src= stimuli/temporalOrder/25.png width = '386.6666666666667' height = '243.18658280922432' hspace='5'><p>Press 1, 2 or 3.</p>","49","html-keyboard-response","132","986167","0.0-3.0-1.32","","temporalOrder","3","41"
"null","","null","html-keyboard-response","133","986673","0.0-3.0-2.32","","blank","",""
"3030.415000001085","<img src= stimuli/temporalOrder/41.png width = '386.6666666666667' height = '243.18658280922432'><p>In which room was the object?</p><img src= stimuli/contextMemory/17.png width = '386.6666666666667' height = '243.18658280922432' hspace='5'><img src= stimuli/contextMemory/6.png width = '386.6666666666667' height = '243.18658280922432' hspace='5'><img src= stimuli/contextMemory/31.png width = '386.6666666666667' height = '243.18658280922432' hspace='5'><p>Press 1, 2 or 3.</p>","50","html-keyboard-response","134","989705","0.0-3.0-3.32","","contextMemory","3","41"
"null","<div style=""font-size:60px;"">+</div>","null","html-keyboard-response","135","990209","0.0-3.0-0.33","","fixation","",""
"5279.809999992722","<img src= stimuli/temporalOrder/79.png width = '386.6666666666667' height = '243.18658280922432'><p>What came before this object?</p><img src= stimuli/temporalOrder/51.png width = '386.6666666666667' height = '243.18658280922432' hspace='5'><img src= stimuli/temporalOrder/75.png width = '386.6666666666667' height = '243.18658280922432' hspace='5'><img src= stimuli/temporalOrder/34.png width = '386.6666666666667' height = '243.18658280922432' hspace='5'><p>Press 1, 2 or 3.</p>","49","html-keyboard-response","136","995490","0.0-3.0-1.33","","temporalOrder","1","79"
"null","","null","html-keyboard-response","137","995993","0.0-3.0-2.33","","blank","",""
"2169.1050000081304","<img src= stimuli/temporalOrder/79.png width = '386.6666666666667' height = '243.18658280922432'><p>In which room was the object?</p><img src= stimuli/contextMemory/17.png width = '386.6666666666667' height = '243.18658280922432' hspace='5'><img src= stimuli/contextMemory/30.png width = '386.6666666666667' height = '243.18658280922432' hspace='5'><img src= stimuli/contextMemory/20.png width = '386.6666666666667' height = '243.18658280922432' hspace='5'><p>Press 1, 2 or 3.</p>","49","html-keyboard-response","138","998163","0.0-3.0-3.33","","contextMemory","3","79"
"null","<div style=""font-size:60px;"">+</div>","null","html-keyboard-response","139","998669","0.0-3.0-0.34","","fixation","",""
"2879.0250000020023","<img src= stimuli/temporalOrder/47.png width = '386.6666666666667' height = '243.18658280922432'><p>What came after this object?</p><img src= stimuli/temporalOrder/4.png width = '386.6666666666667' height = '243.18658280922432' hspace='5'><img src= stimuli/temporalOrder/35.png width = '386.6666666666667' height = '243.18658280922432' hspace='5'><img src= stimuli/temporalOrder/71.png width = '386.6666666666667' height = '243.18658280922432' hspace='5'><p>Press 1, 2 or 3.</p>","49","html-keyboard-response","140","1001549","0.0-3.0-1.34","","temporalOrder","1","47"
"null","","null","html-keyboard-response","141","1002050","0.0-3.0-2.34","","blank","",""
"2472.3200000007637","<img src= stimuli/temporalOrder/47.png width = '386.6666666666667' height = '243.18658280922432'><p>In which room was the object?</p><img src= stimuli/contextMemory/1.png width = '386.6666666666667' height = '243.18658280922432' hspace='5'><img src= stimuli/contextMemory/40.png width = '386.6666666666667' height = '243.18658280922432' hspace='5'><img src= stimuli/contextMemory/2.png width = '386.6666666666667' height = '243.18658280922432' hspace='5'><p>Press 1, 2 or 3.</p>","51","html-keyboard-response","142","1004524","0.0-3.0-3.34","","contextMemory","1","47"
"null","<div style=""font-size:60px;"">+</div>","null","html-keyboard-response","143","1005026","0.0-3.0-0.35","","fixation","",""
"3776.704999996582","<img src= stimuli/temporalOrder/67.png width = '386.6666666666667' height = '243.18658280922432'><p>What came before this object?</p><img src= stimuli/temporalOrder/66.png width = '386.6666666666667' height = '243.18658280922432' hspace='5'><img src= stimuli/temporalOrder/1.png width = '386.6666666666667' height = '243.18658280922432' hspace='5'><img src= stimuli/temporalOrder/54.png width = '386.6666666666667' height = '243.18658280922432' hspace='5'><p>Press 1, 2 or 3.</p>","49","html-keyboard-response","144","1008804","0.0-3.0-1.35","","temporalOrder","1","67"
"null","","null","html-keyboard-response","145","1009305","0.0-3.0-2.35","","blank","",""
"3170.930000007502","<img src= stimuli/temporalOrder/67.png width = '386.6666666666667' height = '243.18658280922432'><p>In which room was the object?</p><img src= stimuli/contextMemory/28.png width = '386.6666666666667' height = '243.18658280922432' hspace='5'><img src= stimuli/contextMemory/34.png width = '386.6666666666667' height = '243.18658280922432' hspace='5'><img src= stimuli/contextMemory/8.png width = '386.6666666666667' height = '243.18658280922432' hspace='5'><p>Press 1, 2 or 3.</p>","51","html-keyboard-response","146","1012478","0.0-3.0-3.35","","contextMemory","2","67"
"null","<div style=""font-size:60px;"">+</div>","null","html-keyboard-response","147","1012979","0.0-3.0-0.36","","fixation","",""
"4335.715000008349","<img src= stimuli/temporalOrder/19.png width = '386.6666666666667' height = '243.18658280922432'><p>What came before this object?</p><img src= stimuli/temporalOrder/13.png width = '386.6666666666667' height = '243.18658280922432' hspace='5'><img src= stimuli/temporalOrder/5.png width = '386.6666666666667' height = '243.18658280922432' hspace='5'><img src= stimuli/temporalOrder/4.png width = '386.6666666666667' height = '243.18658280922432' hspace='5'><p>Press 1, 2 or 3.</p>","49","html-keyboard-response","148","1017317","0.0-3.0-1.36","","temporalOrder","1","19"
"null","","null","html-keyboard-response","149","1017822","0.0-3.0-2.36","","blank","",""
"1422.2049999953015","<img src= stimuli/temporalOrder/19.png width = '386.6666666666667' height = '243.18658280922432'><p>In which room was the object?</p><img src= stimuli/contextMemory/41.png width = '386.6666666666667' height = '243.18658280922432' hspace='5'><img src= stimuli/contextMemory/23.png width = '386.6666666666667' height = '243.18658280922432' hspace='5'><img src= stimuli/contextMemory/11.png width = '386.6666666666667' height = '243.18658280922432' hspace='5'><p>Press 1, 2 or 3.</p>","49","html-keyboard-response","150","1019246","0.0-3.0-3.36","","contextMemory","1","19"
"null","<div style=""font-size:60px;"">+</div>","null","html-keyboard-response","151","1019751","0.0-3.0-0.37","","fixation","",""
"10102.04500000691","<img src= stimuli/temporalOrder/70.png width = '386.6666666666667' height = '243.18658280922432'><p>What came before this object?</p><img src= stimuli/temporalOrder/50.png width = '386.6666666666667' height = '243.18658280922432' hspace='5'><img src= stimuli/temporalOrder/73.png width = '386.6666666666667' height = '243.18658280922432' hspace='5'><img src= stimuli/temporalOrder/71.png width = '386.6666666666667' height = '243.18658280922432' hspace='5'><p>Press 1, 2 or 3.</p>","51","html-keyboard-response","152","1029854","0.0-3.0-1.37","","temporalOrder","3","70"
"null","","null","html-keyboard-response","153","1030359","0.0-3.0-2.37","","blank","",""
"2044.7899999999208","<img src= stimuli/temporalOrder/70.png width = '386.6666666666667' height = '243.18658280922432'><p>In which room was the object?</p><img src= stimuli/contextMemory/8.png width = '386.6666666666667' height = '243.18658280922432' hspace='5'><img src= stimuli/contextMemory/14.png width = '386.6666666666667' height = '243.18658280922432' hspace='5'><img src= stimuli/contextMemory/5.png width = '386.6666666666667' height = '243.18658280922432' hspace='5'><p>Press 1, 2 or 3.</p>","49","html-keyboard-response","154","1032406","0.0-3.0-3.37","","contextMemory","3","70"
"null","<div style=""font-size:60px;"">+</div>","null","html-keyboard-response","155","1032907","0.0-3.0-0.38","","fixation","",""
"4099.219999989145","<img src= stimuli/temporalOrder/72.png width = '386.6666666666667' height = '243.18658280922432'><p>What came before this object?</p><img src= stimuli/temporalOrder/50.png width = '386.6666666666667' height = '243.18658280922432' hspace='5'><img src= stimuli/temporalOrder/30.png width = '386.6666666666667' height = '243.18658280922432' hspace='5'><img src= stimuli/temporalOrder/54.png width = '386.6666666666667' height = '243.18658280922432' hspace='5'><p>Press 1, 2 or 3.</p>","49","html-keyboard-response","156","1037007","0.0-3.0-1.38","","temporalOrder","2","72"
"null","","null","html-keyboard-response","157","1037512","0.0-3.0-2.38","","blank","",""
"1477.7650000032736","<img src= stimuli/temporalOrder/72.png width = '386.6666666666667' height = '243.18658280922432'><p>In which room was the object?</p><img src= stimuli/contextMemory/37.png width = '386.6666666666667' height = '243.18658280922432' hspace='5'><img src= stimuli/contextMemory/15.png width = '386.6666666666667' height = '243.18658280922432' hspace='5'><img src= stimuli/contextMemory/4.png width = '386.6666666666667' height = '243.18658280922432' hspace='5'><p>Press 1, 2 or 3.</p>","50","html-keyboard-response","158","1038992","0.0-3.0-3.38","","contextMemory","2","72"
"null","<div style=""font-size:60px;"">+</div>","null","html-keyboard-response","159","1039496","0.0-3.0-0.39","","fixation","",""
"2792.3399999999674","<img src= stimuli/temporalOrder/35.png width = '386.6666666666667' height = '243.18658280922432'><p>What came before this object?</p><img src= stimuli/temporalOrder/1.png width = '386.6666666666667' height = '243.18658280922432' hspace='5'><img src= stimuli/temporalOrder/27.png width = '386.6666666666667' height = '243.18658280922432' hspace='5'><img src= stimuli/temporalOrder/58.png width = '386.6666666666667' height = '243.18658280922432' hspace='5'><p>Press 1, 2 or 3.</p>","51","html-keyboard-response","160","1042290","0.0-3.0-1.39","","temporalOrder","3","35"
"null","","null","html-keyboard-response","161","1042795","0.0-3.0-2.39","","blank","",""
"4431.50500000047","<img src= stimuli/temporalOrder/35.png width = '386.6666666666667' height = '243.18658280922432'><p>In which room was the object?</p><img src= stimuli/contextMemory/3.png width = '386.6666666666667' height = '243.18658280922432' hspace='5'><img src= stimuli/contextMemory/8.png width = '386.6666666666667' height = '243.18658280922432' hspace='5'><img src= stimuli/contextMemory/32.png width = '386.6666666666667' height = '243.18658280922432' hspace='5'><p>Press 1, 2 or 3.</p>","49","html-keyboard-response","162","1047228","0.0-3.0-3.39","","contextMemory","1","35"
"null","<div style=""font-size:60px;"">+</div>","null","html-keyboard-response","163","1047732","0.0-3.0-0.40","","fixation","",""
"3284.7000000036787","<img src= stimuli/temporalOrder/2.png width = '386.6666666666667' height = '243.18658280922432'><p>What came before this object?</p><img src= stimuli/temporalOrder/21.png width = '386.6666666666667' height = '243.18658280922432' hspace='5'><img src= stimuli/temporalOrder/60.png width = '386.6666666666667' height = '243.18658280922432' hspace='5'><img src= stimuli/temporalOrder/14.png width = '386.6666666666667' height = '243.18658280922432' hspace='5'><p>Press 1, 2 or 3.</p>","51","html-keyboard-response","164","1051018","0.0-3.0-1.40","","temporalOrder","3","2"
"null","","null","html-keyboard-response","165","1051519","0.0-3.0-2.40","","blank","",""
"1398.209999999497","<img src= stimuli/temporalOrder/2.png width = '386.6666666666667' height = '243.18658280922432'><p>In which room was the object?</p><img src= stimuli/contextMemory/17.png width = '386.6666666666667' height = '243.18658280922432' hspace='5'><img src= stimuli/contextMemory/39.png width = '386.6666666666667' height = '243.18658280922432' hspace='5'><img src= stimuli/contextMemory/11.png width = '386.6666666666667' height = '243.18658280922432' hspace='5'><p>Press 1, 2 or 3.</p>","50","html-keyboard-response","166","1052919","0.0-3.0-3.40","","contextMemory","2","2"
"null","<div style=""font-size:60px;"">+</div>","null","html-keyboard-response","167","1053424","0.0-3.0-0.41","","fixation","",""
"4531.5950000076555","<img src= stimuli/temporalOrder/28.png width = '386.6666666666667' height = '243.18658280922432'><p>What came after this object?</p><img src= stimuli/temporalOrder/69.png width = '386.6666666666667' height = '243.18658280922432' hspace='5'><img src= stimuli/temporalOrder/33.png width = '386.6666666666667' height = '243.18658280922432' hspace='5'><img src= stimuli/temporalOrder/40.png width = '386.6666666666667' height = '243.18658280922432' hspace='5'><p>Press 1, 2 or 3.</p>","49","html-keyboard-response","168","1057957","0.0-3.0-1.41","","temporalOrder","2","28"
"null","","null","html-keyboard-response","169","1058462","0.0-3.0-2.41","","blank","",""
"1772.4000000015367","<img src= stimuli/temporalOrder/28.png width = '386.6666666666667' height = '243.18658280922432'><p>In which room was the object?</p><img src= stimuli/contextMemory/36.png width = '386.6666666666667' height = '243.18658280922432' hspace='5'><img src= stimuli/contextMemory/23.png width = '386.6666666666667' height = '243.18658280922432' hspace='5'><img src= stimuli/contextMemory/32.png width = '386.6666666666667' height = '243.18658280922432' hspace='5'><p>Press 1, 2 or 3.</p>","49","html-keyboard-response","170","1060236","0.0-3.0-3.41","","contextMemory","2","28"
"null","<div style=""font-size:60px;"">+</div>","null","html-keyboard-response","171","1060736","0.0-3.0-0.42","","fixation","",""
"7857.055000000168","<img src= stimuli/temporalOrder/75.png width = '386.6666666666667' height = '243.18658280922432'><p>What came after this object?</p><img src= stimuli/temporalOrder/56.png width = '386.6666666666667' height = '243.18658280922432' hspace='5'><img src= stimuli/temporalOrder/54.png width = '386.6666666666667' height = '243.18658280922432' hspace='5'><img src= stimuli/temporalOrder/43.png width = '386.6666666666667' height = '243.18658280922432' hspace='5'><p>Press 1, 2 or 3.</p>","50","html-keyboard-response","172","1068595","0.0-3.0-1.42","","temporalOrder","2","75"
"null","","null","html-keyboard-response","173","1069100","0.0-3.0-2.42","","blank","",""
"1019.8050000034273","<img src= stimuli/temporalOrder/75.png width = '386.6666666666667' height = '243.18658280922432'><p>In which room was the object?</p><img src= stimuli/contextMemory/16.png width = '386.6666666666667' height = '243.18658280922432' hspace='5'><img src= stimuli/contextMemory/25.png width = '386.6666666666667' height = '243.18658280922432' hspace='5'><img src= stimuli/contextMemory/38.png width = '386.6666666666667' height = '243.18658280922432' hspace='5'><p>Press 1, 2 or 3.</p>","50","html-keyboard-response","174","1070122","0.0-3.0-3.42","","contextMemory","3","75"
"null","<div style=""font-size:60px;"">+</div>","null","html-keyboard-response","175","1070624","0.0-3.0-0.43","","fixation","",""
"6768.770000009565","<img src= stimuli/temporalOrder/3.png width = '386.6666666666667' height = '243.18658280922432'><p>What came after this object?</p><img src= stimuli/temporalOrder/34.png width = '386.6666666666667' height = '243.18658280922432' hspace='5'><img src= stimuli/temporalOrder/23.png width = '386.6666666666667' height = '243.18658280922432' hspace='5'><img src= stimuli/temporalOrder/86.png width = '386.6666666666667' height = '243.18658280922432' hspace='5'><p>Press 1, 2 or 3.</p>","49","html-keyboard-response","176","1077394","0.0-3.0-1.43","","temporalOrder","1","3"
"null","","null","html-keyboard-response","177","1077896","0.0-3.0-2.43","","blank","",""
"2430.204999996815","<img src= stimuli/temporalOrder/3.png width = '386.6666666666667' height = '243.18658280922432'><p>In which room was the object?</p><img src= stimuli/contextMemory/15.png width = '386.6666666666667' height = '243.18658280922432' hspace='5'><img src= stimuli/contextMemory/11.png width = '386.6666666666667' height = '243.18658280922432' hspace='5'><img src= stimuli/contextMemory/34.png width = '386.6666666666667' height = '243.18658280922432' hspace='5'><p>Press 1, 2 or 3.</p>","51","html-keyboard-response","178","1080328","0.0-3.0-3.43","","contextMemory","3","3"
"null","<div style=""font-size:60px;"">+</div>","null","html-keyboard-response","179","1080831","0.0-3.0-0.44","","fixation","",""
"5585.3300000014715","<img src= stimuli/temporalOrder/62.png width = '386.6666666666667' height = '243.18658280922432'><p>What came before this object?</p><img src= stimuli/temporalOrder/25.png width = '386.6666666666667' height = '243.18658280922432' hspace='5'><img src= stimuli/temporalOrder/33.png width = '386.6666666666667' height = '243.18658280922432' hspace='5'><img src= stimuli/temporalOrder/49.png width = '386.6666666666667' height = '243.18658280922432' hspace='5'><p>Press 1, 2 or 3.</p>","50","html-keyboard-response","180","1086418","0.0-3.0-1.44","","temporalOrder","1","62"
"null","","null","html-keyboard-response","181","1086919","0.0-3.0-2.44","","blank","",""
"610.715000002645","<img src= stimuli/temporalOrder/62.png width = '386.6666666666667' height = '243.18658280922432'><p>In which room was the object?</p><img src= stimuli/contextMemory/32.png width = '386.6666666666667' height = '243.18658280922432' hspace='5'><img src= stimuli/contextMemory/21.png width = '386.6666666666667' height = '243.18658280922432' hspace='5'><img src= stimuli/contextMemory/23.png width = '386.6666666666667' height = '243.18658280922432' hspace='5'><p>Press 1, 2 or 3.</p>","49","html-keyboard-response","182","1087532","0.0-3.0-3.44","","contextMemory","1","62"
"null","<div style=""font-size:60px;"">+</div>","null","html-keyboard-response","183","1088033","0.0-3.0-0.45","","fixation","",""
"3809.519999995129","<img src= stimuli/temporalOrder/32.png width = '386.6666666666667' height = '243.18658280922432'><p>What came after this object?</p><img src= stimuli/temporalOrder/48.png width = '386.6666666666667' height = '243.18658280922432' hspace='5'><img src= stimuli/temporalOrder/43.png width = '386.6666666666667' height = '243.18658280922432' hspace='5'><img src= stimuli/temporalOrder/27.png width = '386.6666666666667' height = '243.18658280922432' hspace='5'><p>Press 1, 2 or 3.</p>","50","html-keyboard-response","184","1091844","0.0-3.0-1.45","","temporalOrder","2","32"
"null","","null","html-keyboard-response","185","1092349","0.0-3.0-2.45","","blank","",""
"1497.5600000035483","<img src= stimuli/temporalOrder/32.png width = '386.6666666666667' height = '243.18658280922432'><p>In which room was the object?</p><img src= stimuli/contextMemory/27.png width = '386.6666666666667' height = '243.18658280922432' hspace='5'><img src= stimuli/contextMemory/23.png width = '386.6666666666667' height = '243.18658280922432' hspace='5'><img src= stimuli/contextMemory/11.png width = '386.6666666666667' height = '243.18658280922432' hspace='5'><p>Press 1, 2 or 3.</p>","50","html-keyboard-response","186","1093848","0.0-3.0-3.45","","contextMemory","3","32"
"null","<div style=""font-size:60px;"">+</div>","null","html-keyboard-response","187","1094353","0.0-3.0-0.46","","fixation","",""
"3451.2649999961723","<img src= stimuli/temporalOrder/55.png width = '386.6666666666667' height = '243.18658280922432'><p>What came after this object?</p><img src= stimuli/temporalOrder/21.png width = '386.6666666666667' height = '243.18658280922432' hspace='5'><img src= stimuli/temporalOrder/45.png width = '386.6666666666667' height = '243.18658280922432' hspace='5'><img src= stimuli/temporalOrder/62.png width = '386.6666666666667' height = '243.18658280922432' hspace='5'><p>Press 1, 2 or 3.</p>","50","html-keyboard-response","188","1097806","0.0-3.0-1.46","","temporalOrder","1","55"
"null","","null","html-keyboard-response","189","1098310","0.0-3.0-2.46","","blank","",""
"882.0249999989755","<img src= stimuli/temporalOrder/55.png width = '386.6666666666667' height = '243.18658280922432'><p>In which room was the object?</p><img src= stimuli/contextMemory/37.png width = '386.6666666666667' height = '243.18658280922432' hspace='5'><img src= stimuli/contextMemory/3.png width = '386.6666666666667' height = '243.18658280922432' hspace='5'><img src= stimuli/contextMemory/40.png width = '386.6666666666667' height = '243.18658280922432' hspace='5'><p>Press 1, 2 or 3.</p>","51","html-keyboard-response","190","1099194","0.0-3.0-3.46","","contextMemory","1","55"
"null","<div style=""font-size:60px;"">+</div>","null","html-keyboard-response","191","1099696","0.0-3.0-0.47","","fixation","",""
"8179.049999991665","<img src= stimuli/temporalOrder/74.png width = '386.6666666666667' height = '243.18658280922432'><p>What came after this object?</p><img src= stimuli/temporalOrder/44.png width = '386.6666666666667' height = '243.18658280922432' hspace='5'><img src= stimuli/temporalOrder/73.png width = '386.6666666666667' height = '243.18658280922432' hspace='5'><img src= stimuli/temporalOrder/67.png width = '386.6666666666667' height = '243.18658280922432' hspace='5'><p>Press 1, 2 or 3.</p>","49","html-keyboard-response","192","1107877","0.0-3.0-1.47","","temporalOrder","1","74"
"null","","null","html-keyboard-response","193","1108379","0.0-3.0-2.47","","blank","",""
"2136.0300000088755","<img src= stimuli/temporalOrder/74.png width = '386.6666666666667' height = '243.18658280922432'><p>In which room was the object?</p><img src= stimuli/contextMemory/3.png width = '386.6666666666667' height = '243.18658280922432' hspace='5'><img src= stimuli/contextMemory/44.png width = '386.6666666666667' height = '243.18658280922432' hspace='5'><img src= stimuli/contextMemory/24.png width = '386.6666666666667' height = '243.18658280922432' hspace='5'><p>Press 1, 2 or 3.</p>","50","html-keyboard-response","194","1110517","0.0-3.0-3.47","","contextMemory","1","74"
"null","<div style=""font-size:60px;"">+</div>","null","html-keyboard-response","195","1111021","0.0-3.0-0.48","","fixation","",""
"6606.690000000643","<img src= stimuli/temporalOrder/85.png width = '386.6666666666667' height = '243.18658280922432'><p>What came before this object?</p><img src= stimuli/temporalOrder/87.png width = '386.6666666666667' height = '243.18658280922432' hspace='5'><img src= stimuli/temporalOrder/23.png width = '386.6666666666667' height = '243.18658280922432' hspace='5'><img src= stimuli/temporalOrder/34.png width = '386.6666666666667' height = '243.18658280922432' hspace='5'><p>Press 1, 2 or 3.</p>","49","html-keyboard-response","196","1117629","0.0-3.0-1.48","","temporalOrder","1","85"
"null","","null","html-keyboard-response","197","1118134","0.0-3.0-2.48","","blank","",""
"1999.9599999864586","<img src= stimuli/temporalOrder/85.png width = '386.6666666666667' height = '243.18658280922432'><p>In which room was the object?</p><img src= stimuli/contextMemory/35.png width = '386.6666666666667' height = '243.18658280922432' hspace='5'><img src= stimuli/contextMemory/23.png width = '386.6666666666667' height = '243.18658280922432' hspace='5'><img src= stimuli/contextMemory/25.png width = '386.6666666666667' height = '243.18658280922432' hspace='5'><p>Press 1, 2 or 3.</p>","49","html-keyboard-response","198","1120136","0.0-3.0-3.48","","contextMemory","2","85"
"null","<div style=""font-size:60px;"">+</div>","null","html-keyboard-response","199","1120640","0.0-3.0-0.49","","fixation","",""
"7317.960000000196","<img src= stimuli/temporalOrder/60.png width = '386.6666666666667' height = '243.18658280922432'><p>What came before this object?</p><img src= stimuli/temporalOrder/18.png width = '386.6666666666667' height = '243.18658280922432' hspace='5'><img src= stimuli/temporalOrder/51.png width = '386.6666666666667' height = '243.18658280922432' hspace='5'><img src= stimuli/temporalOrder/49.png width = '386.6666666666667' height = '243.18658280922432' hspace='5'><p>Press 1, 2 or 3.</p>","49","html-keyboard-response","200","1127960","0.0-3.0-1.49","","temporalOrder","1","60"
"null","","null","html-keyboard-response","201","1128461","0.0-3.0-2.49","","blank","",""
"1618.4949999877717","<img src= stimuli/temporalOrder/60.png width = '386.6666666666667' height = '243.18658280922432'><p>In which room was the object?</p><img src= stimuli/contextMemory/31.png width = '386.6666666666667' height = '243.18658280922432' hspace='5'><img src= stimuli/contextMemory/39.png width = '386.6666666666667' height = '243.18658280922432' hspace='5'><img src= stimuli/contextMemory/4.png width = '386.6666666666667' height = '243.18658280922432' hspace='5'><p>Press 1, 2 or 3.</p>","51","html-keyboard-response","202","1130082","0.0-3.0-3.49","","contextMemory","1","60"
"null","<div style=""font-size:60px;"">+</div>","null","html-keyboard-response","203","1130587","0.0-3.0-0.50","","fixation","",""
"2705.8899999975692","<img src= stimuli/temporalOrder/44.png width = '386.6666666666667' height = '243.18658280922432'><p>What came after this object?</p><img src= stimuli/temporalOrder/25.png width = '386.6666666666667' height = '243.18658280922432' hspace='5'><img src= stimuli/temporalOrder/21.png width = '386.6666666666667' height = '243.18658280922432' hspace='5'><img src= stimuli/temporalOrder/71.png width = '386.6666666666667' height = '243.18658280922432' hspace='5'><p>Press 1, 2 or 3.</p>","51","html-keyboard-response","204","1133294","0.0-3.0-1.50","","temporalOrder","3","44"
"null","","null","html-keyboard-response","205","1133796","0.0-3.0-2.50","","blank","",""
"2211.299999995623","<img src= stimuli/temporalOrder/44.png width = '386.6666666666667' height = '243.18658280922432'><p>In which room was the object?</p><img src= stimuli/contextMemory/41.png width = '386.6666666666667' height = '243.18658280922432' hspace='5'><img src= stimuli/contextMemory/42.png width = '386.6666666666667' height = '243.18658280922432' hspace='5'><img src= stimuli/contextMemory/4.png width = '386.6666666666667' height = '243.18658280922432' hspace='5'><p>Press 1, 2 or 3.</p>","49","html-keyboard-response","206","1136009","0.0-3.0-3.50","","contextMemory","3","44"
"null","<div style=""font-size:60px;"">+</div>","null","html-keyboard-response","207","1136509","0.0-3.0-0.51","","fixation","",""
"8938.799999989104","<img src= stimuli/temporalOrder/6.png width = '386.6666666666667' height = '243.18658280922432'><p>What came after this object?</p><img src= stimuli/temporalOrder/38.png width = '386.6666666666667' height = '243.18658280922432' hspace='5'><img src= stimuli/temporalOrder/5.png width = '386.6666666666667' height = '243.18658280922432' hspace='5'><img src= stimuli/temporalOrder/47.png width = '386.6666666666667' height = '243.18658280922432' hspace='5'><p>Press 1, 2 or 3.</p>","50","html-keyboard-response","208","1145450","0.0-3.0-1.51","","temporalOrder","1","6"
"null","","null","html-keyboard-response","209","1145954","0.0-3.0-2.51","","blank","",""
"4812.185000002617","<img src= stimuli/temporalOrder/6.png width = '386.6666666666667' height = '243.18658280922432'><p>In which room was the object?</p><img src= stimuli/contextMemory/30.png width = '386.6666666666667' height = '243.18658280922432' hspace='5'><img src= stimuli/contextMemory/36.png width = '386.6666666666667' height = '243.18658280922432' hspace='5'><img src= stimuli/contextMemory/43.png width = '386.6666666666667' height = '243.18658280922432' hspace='5'><p>Press 1, 2 or 3.</p>","50","html-keyboard-response","210","1150768","0.0-3.0-3.51","","contextMemory","3","6"
"null","<div style=""font-size:60px;"">+</div>","null","html-keyboard-response","211","1151273","0.0-3.0-0.52","","fixation","",""
"4164.895000008866","<img src= stimuli/temporalOrder/77.png width = '386.6666666666667' height = '243.18658280922432'><p>What came before this object?</p><img src= stimuli/temporalOrder/76.png width = '386.6666666666667' height = '243.18658280922432' hspace='5'><img src= stimuli/temporalOrder/36.png width = '386.6666666666667' height = '243.18658280922432' hspace='5'><img src= stimuli/temporalOrder/81.png width = '386.6666666666667' height = '243.18658280922432' hspace='5'><p>Press 1, 2 or 3.</p>","51","html-keyboard-response","212","1155439","0.0-3.0-1.52","","temporalOrder","3","77"
"null","","null","html-keyboard-response","213","1155942","0.0-3.0-2.52","","blank","",""
"3054.514999996405","<img src= stimuli/temporalOrder/77.png width = '386.6666666666667' height = '243.18658280922432'><p>In which room was the object?</p><img src= stimuli/contextMemory/3.png width = '386.6666666666667' height = '243.18658280922432' hspace='5'><img src= stimuli/contextMemory/6.png width = '386.6666666666667' height = '243.18658280922432' hspace='5'><img src= stimuli/contextMemory/37.png width = '386.6666666666667' height = '243.18658280922432' hspace='5'><p>Press 1, 2 or 3.</p>","50","html-keyboard-response","214","1158998","0.0-3.0-3.52","","contextMemory","2","77"
"null","<div style=""font-size:60px;"">+</div>","null","html-keyboard-response","215","1159501","0.0-3.0-0.53","","fixation","",""
"4781.050000004936","<img src= stimuli/temporalOrder/42.png width = '386.6666666666667' height = '243.18658280922432'><p>What came after this object?</p><img src= stimuli/temporalOrder/14.png width = '386.6666666666667' height = '243.18658280922432' hspace='5'><img src= stimuli/temporalOrder/78.png width = '386.6666666666667' height = '243.18658280922432' hspace='5'><img src= stimuli/temporalOrder/80.png width = '386.6666666666667' height = '243.18658280922432' hspace='5'><p>Press 1, 2 or 3.</p>","50","html-keyboard-response","216","1164284","0.0-3.0-1.53","","temporalOrder","2","42"
"null","","null","html-keyboard-response","217","1164789","0.0-3.0-2.53","","blank","",""
"1467.0849999967031","<img src= stimuli/temporalOrder/42.png width = '386.6666666666667' height = '243.18658280922432'><p>In which room was the object?</p><img src= stimuli/contextMemory/20.png width = '386.6666666666667' height = '243.18658280922432' hspace='5'><img src= stimuli/contextMemory/44.png width = '386.6666666666667' height = '243.18658280922432' hspace='5'><img src= stimuli/contextMemory/39.png width = '386.6666666666667' height = '243.18658280922432' hspace='5'><p>Press 1, 2 or 3.</p>","49","html-keyboard-response","218","1166258","0.0-3.0-3.53","","contextMemory","2","42"
"null","<div style=""font-size:60px;"">+</div>","null","html-keyboard-response","219","1166759","0.0-3.0-0.54","","fixation","",""
"12106.894999989774","<img src= stimuli/temporalOrder/56.png width = '386.6666666666667' height = '243.18658280922432'><p>What came after this object?</p><img src= stimuli/temporalOrder/84.png width = '386.6666666666667' height = '243.18658280922432' hspace='5'><img src= stimuli/temporalOrder/50.png width = '386.6666666666667' height = '243.18658280922432' hspace='5'><img src= stimuli/temporalOrder/39.png width = '386.6666666666667' height = '243.18658280922432' hspace='5'><p>Press 1, 2 or 3.</p>","49","html-keyboard-response","220","1178867","0.0-3.0-1.54","","temporalOrder","2","56"
"null","","null","html-keyboard-response","221","1179371","0.0-3.0-2.54","","blank","",""
"1997.7800000051502","<img src= stimuli/temporalOrder/56.png width = '386.6666666666667' height = '243.18658280922432'><p>In which room was the object?</p><img src= stimuli/contextMemory/42.png width = '386.6666666666667' height = '243.18658280922432' hspace='5'><img src= stimuli/contextMemory/25.png width = '386.6666666666667' height = '243.18658280922432' hspace='5'><img src= stimuli/contextMemory/30.png width = '386.6666666666667' height = '243.18658280922432' hspace='5'><p>Press 1, 2 or 3.</p>","49","html-keyboard-response","222","1181370","0.0-3.0-3.54","","contextMemory","2","56"
"null","<div style=""font-size:60px;"">+</div>","null","html-keyboard-response","223","1181871","0.0-3.0-0.55","","fixation","",""
"2370.924999995623","<img src= stimuli/temporalOrder/22.png width = '386.6666666666667' height = '243.18658280922432'><p>What came after this object?</p><img src= stimuli/temporalOrder/83.png width = '386.6666666666667' height = '243.18658280922432' hspace='5'><img src= stimuli/temporalOrder/84.png width = '386.6666666666667' height = '243.18658280922432' hspace='5'><img src= stimuli/temporalOrder/81.png width = '386.6666666666667' height = '243.18658280922432' hspace='5'><p>Press 1, 2 or 3.</p>","50","html-keyboard-response","224","1184243","0.0-3.0-1.55","","temporalOrder","2","22"
"null","","null","html-keyboard-response","225","1184746","0.0-3.0-2.55","","blank","",""
"1997.1150000053458","<img src= stimuli/temporalOrder/22.png width = '386.6666666666667' height = '243.18658280922432'><p>In which room was the object?</p><img src= stimuli/contextMemory/7.png width = '386.6666666666667' height = '243.18658280922432' hspace='5'><img src= stimuli/contextMemory/18.png width = '386.6666666666667' height = '243.18658280922432' hspace='5'><img src= stimuli/contextMemory/24.png width = '386.6666666666667' height = '243.18658280922432' hspace='5'><p>Press 1, 2 or 3.</p>","51","html-keyboard-response","226","1186745","0.0-3.0-3.55","","contextMemory","1","22"
"null","<div style=""font-size:60px;"">+</div>","null","html-keyboard-response","227","1187250","0.0-3.0-0.56","","fixation","",""
"5126.854999994859","<img src= stimuli/temporalOrder/68.png width = '386.6666666666667' height = '243.18658280922432'><p>What came before this object?</p><img src= stimuli/temporalOrder/48.png width = '386.6666666666667' height = '243.18658280922432' hspace='5'><img src= stimuli/temporalOrder/28.png width = '386.6666666666667' height = '243.18658280922432' hspace='5'><img src= stimuli/temporalOrder/2.png width = '386.6666666666667' height = '243.18658280922432' hspace='5'><p>Press 1, 2 or 3.</p>","49","html-keyboard-response","228","1192378","0.0-3.0-1.56","","temporalOrder","3","68"
"null","","null","html-keyboard-response","229","1192880","0.0-3.0-2.56","","blank","",""
"1509.779999993043","<img src= stimuli/temporalOrder/68.png width = '386.6666666666667' height = '243.18658280922432'><p>In which room was the object?</p><img src= stimuli/contextMemory/40.png width = '386.6666666666667' height = '243.18658280922432' hspace='5'><img src= stimuli/contextMemory/8.png width = '386.6666666666667' height = '243.18658280922432' hspace='5'><img src= stimuli/contextMemory/42.png width = '386.6666666666667' height = '243.18658280922432' hspace='5'><p>Press 1, 2 or 3.</p>","49","html-keyboard-response","230","1194392","0.0-3.0-3.56","","contextMemory","1","68"
"null","<div style=""font-size:60px;"">+</div>","null","html-keyboard-response","231","1194892","0.0-3.0-0.57","","fixation","",""
"4458.539999992354","<img src= stimuli/temporalOrder/20.png width = '386.6666666666667' height = '243.18658280922432'><p>What came after this object?</p><img src= stimuli/temporalOrder/3.png width = '386.6666666666667' height = '243.18658280922432' hspace='5'><img src= stimuli/temporalOrder/10.png width = '386.6666666666667' height = '243.18658280922432' hspace='5'><img src= stimuli/temporalOrder/16.png width = '386.6666666666667' height = '243.18658280922432' hspace='5'><p>Press 1, 2 or 3.</p>","50","html-keyboard-response","232","1199352","0.0-3.0-1.57","","temporalOrder","2","20"
"null","","null","html-keyboard-response","233","1199855","0.0-3.0-2.57","","blank","",""
"1343.1349999883678","<img src= stimuli/temporalOrder/20.png width = '386.6666666666667' height = '243.18658280922432'><p>In which room was the object?</p><img src= stimuli/contextMemory/5.png width = '386.6666666666667' height = '243.18658280922432' hspace='5'><img src= stimuli/contextMemory/29.png width = '386.6666666666667' height = '243.18658280922432' hspace='5'><img src= stimuli/contextMemory/16.png width = '386.6666666666667' height = '243.18658280922432' hspace='5'><p>Press 1, 2 or 3.</p>","51","html-keyboard-response","234","1201200","0.0-3.0-3.57","","contextMemory","2","20"
"null","<div style=""font-size:60px;"">+</div>","null","html-keyboard-response","235","1201701","0.0-3.0-0.58","","fixation","",""
"5878.104999996023","<img src= stimuli/temporalOrder/78.png width = '386.6666666666667' height = '243.18658280922432'><p>What came before this object?</p><img src= stimuli/temporalOrder/61.png width = '386.6666666666667' height = '243.18658280922432' hspace='5'><img src= stimuli/temporalOrder/42.png width = '386.6666666666667' height = '243.18658280922432' hspace='5'><img src= stimuli/temporalOrder/29.png width = '386.6666666666667' height = '243.18658280922432' hspace='5'><p>Press 1, 2 or 3.</p>","50","html-keyboard-response","236","1207581","0.0-3.0-1.58","","temporalOrder","2","78"
"null","","null","html-keyboard-response","237","1208083","0.0-3.0-2.58","","blank","",""
"5789.304999998538","<img src= stimuli/temporalOrder/78.png width = '386.6666666666667' height = '243.18658280922432'><p>In which room was the object?</p><img src= stimuli/contextMemory/44.png width = '386.6666666666667' height = '243.18658280922432' hspace='5'><img src= stimuli/contextMemory/43.png width = '386.6666666666667' height = '243.18658280922432' hspace='5'><img src= stimuli/contextMemory/3.png width = '386.6666666666667' height = '243.18658280922432' hspace='5'><p>Press 1, 2 or 3.</p>","49","html-keyboard-response","238","1213874","0.0-3.0-3.58","","contextMemory","1","78"
"null","<div style=""font-size:60px;"">+</div>","null","html-keyboard-response","239","1214375","0.0-3.0-0.59","","fixation","",""
"6880.025000005728","<img src= stimuli/temporalOrder/12.png width = '386.6666666666667' height = '243.18658280922432'><p>What came after this object?</p><img src= stimuli/temporalOrder/11.png width = '386.6666666666667' height = '243.18658280922432' hspace='5'><img src= stimuli/temporalOrder/2.png width = '386.6666666666667' height = '243.18658280922432' hspace='5'><img src= stimuli/temporalOrder/73.png width = '386.6666666666667' height = '243.18658280922432' hspace='5'><p>Press 1, 2 or 3.</p>","51","html-keyboard-response","240","1221257","0.0-3.0-1.59","","temporalOrder","3","12"
"null","","null","html-keyboard-response","241","1221757","0.0-3.0-2.59","","blank","",""
"3168.9000000043306","<img src= stimuli/temporalOrder/12.png width = '386.6666666666667' height = '243.18658280922432'><p>In which room was the object?</p><img src= stimuli/contextMemory/8.png width = '386.6666666666667' height = '243.18658280922432' hspace='5'><img src= stimuli/contextMemory/31.png width = '386.6666666666667' height = '243.18658280922432' hspace='5'><img src= stimuli/contextMemory/20.png width = '386.6666666666667' height = '243.18658280922432' hspace='5'><p>Press 1, 2 or 3.</p>","51","html-keyboard-response","242","1224928","0.0-3.0-3.59","","contextMemory","1","12"
"null","<div style=""font-size:60px;"">+</div>","null","html-keyboard-response","243","1225430","0.0-3.0-0.60","","fixation","",""
"4379.700000004843","<img src= stimuli/temporalOrder/63.png width = '386.6666666666667' height = '243.18658280922432'><p>What came before this object?</p><img src= stimuli/temporalOrder/37.png width = '386.6666666666667' height = '243.18658280922432' hspace='5'><img src= stimuli/temporalOrder/12.png width = '386.6666666666667' height = '243.18658280922432' hspace='5'><img src= stimuli/temporalOrder/19.png width = '386.6666666666667' height = '243.18658280922432' hspace='5'><p>Press 1, 2 or 3.</p>","49","html-keyboard-response","244","1229811","0.0-3.0-1.60","","temporalOrder","1","63"
"null","","null","html-keyboard-response","245","1230312","0.0-3.0-2.60","","blank","",""
"2603.734999996843","<img src= stimuli/temporalOrder/63.png width = '386.6666666666667' height = '243.18658280922432'><p>In which room was the object?</p><img src= stimuli/contextMemory/14.png width = '386.6666666666667' height = '243.18658280922432' hspace='5'><img src= stimuli/contextMemory/18.png width = '386.6666666666667' height = '243.18658280922432' hspace='5'><img src= stimuli/contextMemory/28.png width = '386.6666666666667' height = '243.18658280922432' hspace='5'><p>Press 1, 2 or 3.</p>","49","html-keyboard-response","246","1232917","0.0-3.0-3.60","","contextMemory","2","63"
"null","<div style=""font-size:60px;"">+</div>","null","html-keyboard-response","247","1233419","0.0-3.0-0.61","","fixation","",""
"2236.3350000088103","<img src= stimuli/temporalOrder/81.png width = '386.6666666666667' height = '243.18658280922432'><p>What came before this object?</p><img src= stimuli/temporalOrder/9.png width = '386.6666666666667' height = '243.18658280922432' hspace='5'><img src= stimuli/temporalOrder/56.png width = '386.6666666666667' height = '243.18658280922432' hspace='5'><img src= stimuli/temporalOrder/69.png width = '386.6666666666667' height = '243.18658280922432' hspace='5'><p>Press 1, 2 or 3.</p>","51","html-keyboard-response","248","1235657","0.0-3.0-1.61","","temporalOrder","3","81"
"null","","null","html-keyboard-response","249","1236158","0.0-3.0-2.61","","blank","",""
"2945.9800000039395","<img src= stimuli/temporalOrder/81.png width = '386.6666666666667' height = '243.18658280922432'><p>In which room was the object?</p><img src= stimuli/contextMemory/9.png width = '386.6666666666667' height = '243.18658280922432' hspace='5'><img src= stimuli/contextMemory/13.png width = '386.6666666666667' height = '243.18658280922432' hspace='5'><img src= stimuli/contextMemory/6.png width = '386.6666666666667' height = '243.18658280922432' hspace='5'><p>Press 1, 2 or 3.</p>","51","html-keyboard-response","250","1239105","0.0-3.0-3.61","","contextMemory","3","81"
"null","<div style=""font-size:60px;"">+</div>","null","html-keyboard-response","251","1239607","0.0-3.0-0.62","","fixation","",""
"6202.57500000298","<img src= stimuli/temporalOrder/30.png width = '386.6666666666667' height = '243.18658280922432'><p>What came after this object?</p><img src= stimuli/temporalOrder/43.png width = '386.6666666666667' height = '243.18658280922432' hspace='5'><img src= stimuli/temporalOrder/72.png width = '386.6666666666667' height = '243.18658280922432' hspace='5'><img src= stimuli/temporalOrder/87.png width = '386.6666666666667' height = '243.18658280922432' hspace='5'><p>Press 1, 2 or 3.</p>","50","html-keyboard-response","252","1245811","0.0-3.0-1.62","","temporalOrder","2","30"
"null","","null","html-keyboard-response","253","1246316","0.0-3.0-2.62","","blank","",""
"1065.8750000002328","<img src= stimuli/temporalOrder/30.png width = '386.6666666666667' height = '243.18658280922432'><p>In which room was the object?</p><img src= stimuli/contextMemory/12.png width = '386.6666666666667' height = '243.18658280922432' hspace='5'><img src= stimuli/contextMemory/14.png width = '386.6666666666667' height = '243.18658280922432' hspace='5'><img src= stimuli/contextMemory/16.png width = '386.6666666666667' height = '243.18658280922432' hspace='5'><p>Press 1, 2 or 3.</p>","50","html-keyboard-response","254","1247383","0.0-3.0-3.62","","contextMemory","2","30"
"null","<div style=""font-size:60px;"">+</div>","null","html-keyboard-response","255","1247884","0.0-3.0-0.63","","fixation","",""
"5813.934999998426","<img src= stimuli/temporalOrder/48.png width = '386.6666666666667' height = '243.18658280922432'><p>What came after this object?</p><img src= stimuli/temporalOrder/20.png width = '386.6666666666667' height = '243.18658280922432' hspace='5'><img src= stimuli/temporalOrder/51.png width = '386.6666666666667' height = '243.18658280922432' hspace='5'><img src= stimuli/temporalOrder/37.png width = '386.6666666666667' height = '243.18658280922432' hspace='5'><p>Press 1, 2 or 3.</p>","49","html-keyboard-response","256","1253700","0.0-3.0-1.63","","temporalOrder","1","48"
"null","","null","html-keyboard-response","257","1254201","0.0-3.0-2.63","","blank","",""
"1917.8499999979977","<img src= stimuli/temporalOrder/48.png width = '386.6666666666667' height = '243.18658280922432'><p>In which room was the object?</p><img src= stimuli/contextMemory/28.png width = '386.6666666666667' height = '243.18658280922432' hspace='5'><img src= stimuli/contextMemory/6.png width = '386.6666666666667' height = '243.18658280922432' hspace='5'><img src= stimuli/contextMemory/12.png width = '386.6666666666667' height = '243.18658280922432' hspace='5'><p>Press 1, 2 or 3.</p>","51","html-keyboard-response","258","1256121","0.0-3.0-3.63","","contextMemory","1","48"
"null","<div style=""font-size:60px;"">+</div>","null","html-keyboard-response","259","1256626","0.0-3.0-0.64","","fixation","",""
"2465.0750000001863","<img src= stimuli/temporalOrder/69.png width = '386.6666666666667' height = '243.18658280922432'><p>What came after this object?</p><img src= stimuli/temporalOrder/81.png width = '386.6666666666667' height = '243.18658280922432' hspace='5'><img src= stimuli/temporalOrder/79.png width = '386.6666666666667' height = '243.18658280922432' hspace='5'><img src= stimuli/temporalOrder/75.png width = '386.6666666666667' height = '243.18658280922432' hspace='5'><p>Press 1, 2 or 3.</p>","49","html-keyboard-response","260","1259092","0.0-3.0-1.64","","temporalOrder","1","69"
"null","","null","html-keyboard-response","261","1259595","0.0-3.0-2.64","","blank","",""
"1868.8249999976251","<img src= stimuli/temporalOrder/69.png width = '386.6666666666667' height = '243.18658280922432'><p>In which room was the object?</p><img src= stimuli/contextMemory/5.png width = '386.6666666666667' height = '243.18658280922432' hspace='5'><img src= stimuli/contextMemory/2.png width = '386.6666666666667' height = '243.18658280922432' hspace='5'><img src= stimuli/contextMemory/32.png width = '386.6666666666667' height = '243.18658280922432' hspace='5'><p>Press 1, 2 or 3.</p>","49","html-keyboard-response","262","1261465","0.0-3.0-3.64","","contextMemory","1","69"
"null","<div style=""font-size:60px;"">+</div>","null","html-keyboard-response","263","1261965","0.0-3.0-0.65","","fixation","",""
"6614.065000001574","<img src= stimuli/temporalOrder/52.png width = '386.6666666666667' height = '243.18658280922432'><p>What came after this object?</p><img src= stimuli/temporalOrder/30.png width = '386.6666666666667' height = '243.18658280922432' hspace='5'><img src= stimuli/temporalOrder/4.png width = '386.6666666666667' height = '243.18658280922432' hspace='5'><img src= stimuli/temporalOrder/78.png width = '386.6666666666667' height = '243.18658280922432' hspace='5'><p>Press 1, 2 or 3.</p>","51","html-keyboard-response","264","1268581","0.0-3.0-1.65","","temporalOrder","1","52"
"null","","null","html-keyboard-response","265","1269086","0.0-3.0-2.65","","blank","",""
"1849.2600000025705","<img src= stimuli/temporalOrder/52.png width = '386.6666666666667' height = '243.18658280922432'><p>In which room was the object?</p><img src= stimuli/contextMemory/7.png width = '386.6666666666667' height = '243.18658280922432' hspace='5'><img src= stimuli/contextMemory/14.png width = '386.6666666666667' height = '243.18658280922432' hspace='5'><img src= stimuli/contextMemory/1.png width = '386.6666666666667' height = '243.18658280922432' hspace='5'><p>Press 1, 2 or 3.</p>","49","html-keyboard-response","266","1270937","0.0-3.0-3.65","","contextMemory","2","52"
"null","<div style=""font-size:60px;"">+</div>","null","html-keyboard-response","267","1271441","0.0-3.0-0.66","","fixation","",""
"4061.4449999993667","<img src= stimuli/temporalOrder/54.png width = '386.6666666666667' height = '243.18658280922432'><p>What came after this object?</p><img src= stimuli/temporalOrder/81.png width = '386.6666666666667' height = '243.18658280922432' hspace='5'><img src= stimuli/temporalOrder/58.png width = '386.6666666666667' height = '243.18658280922432' hspace='5'><img src= stimuli/temporalOrder/14.png width = '386.6666666666667' height = '243.18658280922432' hspace='5'><p>Press 1, 2 or 3.</p>","51","html-keyboard-response","268","1275504","0.0-3.0-1.66","","temporalOrder","3","54"
"null","","null","html-keyboard-response","269","1276009","0.0-3.0-2.66","","blank","",""
"1394.3149999976158","<img src= stimuli/temporalOrder/54.png width = '386.6666666666667' height = '243.18658280922432'><p>In which room was the object?</p><img src= stimuli/contextMemory/5.png width = '386.6666666666667' height = '243.18658280922432' hspace='5'><img src= stimuli/contextMemory/38.png width = '386.6666666666667' height = '243.18658280922432' hspace='5'><img src= stimuli/contextMemory/37.png width = '386.6666666666667' height = '243.18658280922432' hspace='5'><p>Press 1, 2 or 3.</p>","49","html-keyboard-response","270","1277405","0.0-3.0-3.66","","contextMemory","2","54"
"null","<div style=""font-size:60px;"">+</div>","null","html-keyboard-response","271","1277910","0.0-3.0-0.67","","fixation","",""
"6148.390000002226","<img src= stimuli/temporalOrder/11.png width = '386.6666666666667' height = '243.18658280922432'><p>What came after this object?</p><img src= stimuli/temporalOrder/10.png width = '386.6666666666667' height = '243.18658280922432' hspace='5'><img src= stimuli/temporalOrder/80.png width = '386.6666666666667' height = '243.18658280922432' hspace='5'><img src= stimuli/temporalOrder/6.png width = '386.6666666666667' height = '243.18658280922432' hspace='5'><p>Press 1, 2 or 3.</p>","51","html-keyboard-response","272","1284061","0.0-3.0-1.67","","temporalOrder","3","11"
"null","","null","html-keyboard-response","273","1284563","0.0-3.0-2.67","","blank","",""
"1483.6650000070222","<img src= stimuli/temporalOrder/11.png width = '386.6666666666667' height = '243.18658280922432'><p>In which room was the object?</p><img src= stimuli/contextMemory/10.png width = '386.6666666666667' height = '243.18658280922432' hspace='5'><img src= stimuli/contextMemory/42.png width = '386.6666666666667' height = '243.18658280922432' hspace='5'><img src= stimuli/contextMemory/26.png width = '386.6666666666667' height = '243.18658280922432' hspace='5'><p>Press 1, 2 or 3.</p>","49","html-keyboard-response","274","1286049","0.0-3.0-3.67","","contextMemory","2","11"
"null","<div style=""font-size:60px;"">+</div>","null","html-keyboard-response","275","1286550","0.0-3.0-0.68","","fixation","",""
"5135.735000003595","<img src= stimuli/temporalOrder/23.png width = '386.6666666666667' height = '243.18658280922432'><p>What came before this object?</p><img src= stimuli/temporalOrder/16.png width = '386.6666666666667' height = '243.18658280922432' hspace='5'><img src= stimuli/temporalOrder/47.png width = '386.6666666666667' height = '243.18658280922432' hspace='5'><img src= stimuli/temporalOrder/20.png width = '386.6666666666667' height = '243.18658280922432' hspace='5'><p>Press 1, 2 or 3.</p>","49","html-keyboard-response","276","1291687","0.0-3.0-1.68","","temporalOrder","1","23"
"null","","null","html-keyboard-response","277","1292191","0.0-3.0-2.68","","blank","",""
"2290.7200000046287","<img src= stimuli/temporalOrder/23.png width = '386.6666666666667' height = '243.18658280922432'><p>In which room was the object?</p><img src= stimuli/contextMemory/41.png width = '386.6666666666667' height = '243.18658280922432' hspace='5'><img src= stimuli/contextMemory/18.png width = '386.6666666666667' height = '243.18658280922432' hspace='5'><img src= stimuli/contextMemory/36.png width = '386.6666666666667' height = '243.18658280922432' hspace='5'><p>Press 1, 2 or 3.</p>","50","html-keyboard-response","278","1294483","0.0-3.0-3.68","","contextMemory","3","23"
"null","<div style=""font-size:60px;"">+</div>","null","html-keyboard-response","279","1294988","0.0-3.0-0.69","","fixation","",""
"1816.3500000082422","<img src= stimuli/temporalOrder/65.png width = '386.6666666666667' height = '243.18658280922432'><p>What came after this object?</p><img src= stimuli/temporalOrder/3.png width = '386.6666666666667' height = '243.18658280922432' hspace='5'><img src= stimuli/temporalOrder/17.png width = '386.6666666666667' height = '243.18658280922432' hspace='5'><img src= stimuli/temporalOrder/15.png width = '386.6666666666667' height = '243.18658280922432' hspace='5'><p>Press 1, 2 or 3.</p>","50","html-keyboard-response","280","1296806","0.0-3.0-1.69","","temporalOrder","2","65"
"null","","null","html-keyboard-response","281","1297311","0.0-3.0-2.69","","blank","",""
"2202.6199999963865","<img src= stimuli/temporalOrder/65.png width = '386.6666666666667' height = '243.18658280922432'><p>In which room was the object?</p><img src= stimuli/contextMemory/10.png width = '386.6666666666667' height = '243.18658280922432' hspace='5'><img src= stimuli/contextMemory/16.png width = '386.6666666666667' height = '243.18658280922432' hspace='5'><img src= stimuli/contextMemory/41.png width = '386.6666666666667' height = '243.18658280922432' hspace='5'><p>Press 1, 2 or 3.</p>","50","html-keyboard-response","282","1299515","0.0-3.0-3.69","","contextMemory","2","65"
"null","<div style=""font-size:60px;"">+</div>","null","html-keyboard-response","283","1300019","0.0-3.0-0.70","","fixation","",""
