"rt","stimulus","key_press","trial_type","trial_index","time_elapsed","internal_node_id","success","test_part","correct_response","probe"
"547411","<p>Thank you for participating in this experiment.</p><p>At first, you will watch a video, in which you see a series of objects in a series of rooms.</p><p>Try to remember that sequence and try to remember the rooms an object was in. </p><p>To start the experiment, please watch the following video: <a href='https://youtu.be/PKNqyqvctJg' target='_blank'>https://youtu.be/PKNqyqvctJg</a><p>Please enable the full screen mode while watching the video and use the highest resolution.</p><p>Press <strong>space</strong> to continue after watching the video.</p>","32","html-keyboard-response","0","547413","0.0-0.0","","","",""
"","","","fullscreen","1","555024","0.0-1.0","true","","",""
"22515","<p>After you have watched the video, you will now complete a memory task.</p><br><br><p>On each trial, you need to answer two questions. For both questions you have to</p><p>to choose the correct image from three alternatives by pressing 1, 2 or 3 from top of the keyboard.</p><p>For the first question, you need to decide which object was either before or after the object presented</p><p>at the top. This is relative to the sequence of objects you saw in the video. For the second question, </p><p>you need to decide in which room the object was. In order to do this, you need to base</p><p>this on the <strong>wall colour</strong> and the <strong>carpet</strong>.</p><br><p>Press <strong>space</strong> to begin.</p>","32","html-keyboard-response","2","577540","0.0-2.0","","","",""
"null","<div style=""font-size:60px;"">+</div>","null","html-keyboard-response","3","580043","0.0-3.0-0.0","","fixation","",""
"10846","<img src= stimuli/temporalOrder/79.png width = '400' height = '251.57232704402514'><p>What came before this object?</p><img src= stimuli/temporalOrder/51.png width = '400' height = '251.57232704402514' hspace='5'><img src= stimuli/temporalOrder/75.png width = '400' height = '251.57232704402514' hspace='5'><img src= stimuli/temporalOrder/34.png width = '400' height = '251.57232704402514' hspace='5'><p>Press 1, 2 or 3.</p>","49","html-keyboard-response","4","590891","0.0-3.0-1.0","","temporalOrder","1","79"
"null","","null","html-keyboard-response","5","591394","0.0-3.0-2.0","","blank","",""
"8829","<img src= stimuli/temporalOrder/79.png width = '400' height = '251.57232704402514'><p>In which room was the object?</p><img src= stimuli/contextMemory/17.png width = '400' height = '251.57232704402514' hspace='5'><img src= stimuli/contextMemory/30.png width = '400' height = '251.57232704402514' hspace='5'><img src= stimuli/contextMemory/20.png width = '400' height = '251.57232704402514' hspace='5'><p>Press 1, 2 or 3.</p>","50","html-keyboard-response","6","600225","0.0-3.0-3.0","","contextMemory","3","79"
"null","<div style=""font-size:60px;"">+</div>","null","html-keyboard-response","7","600727","0.0-3.0-0.1","","fixation","",""
"11396","<img src= stimuli/temporalOrder/86.png width = '400' height = '251.57232704402514'><p>What came before this object?</p><img src= stimuli/temporalOrder/46.png width = '400' height = '251.57232704402514' hspace='5'><img src= stimuli/temporalOrder/72.png width = '400' height = '251.57232704402514' hspace='5'><img src= stimuli/temporalOrder/66.png width = '400' height = '251.57232704402514' hspace='5'><p>Press 1, 2 or 3.</p>","49","html-keyboard-response","8","612124","0.0-3.0-1.1","","temporalOrder","2","86"
"null","","null","html-keyboard-response","9","612627","0.0-3.0-2.1","","blank","",""
"3424","<img src= stimuli/temporalOrder/86.png width = '400' height = '251.57232704402514'><p>In which room was the object?</p><img src= stimuli/contextMemory/31.png width = '400' height = '251.57232704402514' hspace='5'><img src= stimuli/contextMemory/15.png width = '400' height = '251.57232704402514' hspace='5'><img src= stimuli/contextMemory/29.png width = '400' height = '251.57232704402514' hspace='5'><p>Press 1, 2 or 3.</p>","50","html-keyboard-response","10","616052","0.0-3.0-3.1","","contextMemory","2","86"
"null","<div style=""font-size:60px;"">+</div>","null","html-keyboard-response","11","616554","0.0-3.0-0.2","","fixation","",""
"13395.999999999884","<img src= stimuli/temporalOrder/38.png width = '400' height = '251.57232704402514'><p>What came after this object?</p><img src= stimuli/temporalOrder/52.png width = '400' height = '251.57232704402514' hspace='5'><img src= stimuli/temporalOrder/69.png width = '400' height = '251.57232704402514' hspace='5'><img src= stimuli/temporalOrder/42.png width = '400' height = '251.57232704402514' hspace='5'><p>Press 1, 2 or 3.</p>","50","html-keyboard-response","12","629951","0.0-3.0-1.2","","temporalOrder","3","38"
"null","","null","html-keyboard-response","13","630453","0.0-3.0-2.2","","blank","",""
"3231","<img src= stimuli/temporalOrder/38.png width = '400' height = '251.57232704402514'><p>In which room was the object?</p><img src= stimuli/contextMemory/20.png width = '400' height = '251.57232704402514' hspace='5'><img src= stimuli/contextMemory/22.png width = '400' height = '251.57232704402514' hspace='5'><img src= stimuli/contextMemory/43.png width = '400' height = '251.57232704402514' hspace='5'><p>Press 1, 2 or 3.</p>","50","html-keyboard-response","14","633685","0.0-3.0-3.2","","contextMemory","3","38"
"null","<div style=""font-size:60px;"">+</div>","null","html-keyboard-response","15","634187","0.0-3.0-0.3","","fixation","",""
"8529","<img src= stimuli/temporalOrder/83.png width = '400' height = '251.57232704402514'><p>What came before this object?</p><img src= stimuli/temporalOrder/86.png width = '400' height = '251.57232704402514' hspace='5'><img src= stimuli/temporalOrder/77.png width = '400' height = '251.57232704402514' hspace='5'><img src= stimuli/temporalOrder/43.png width = '400' height = '251.57232704402514' hspace='5'><p>Press 1, 2 or 3.</p>","49","html-keyboard-response","16","642718","0.0-3.0-1.3","","temporalOrder","3","83"
"null","","null","html-keyboard-response","17","643220","0.0-3.0-2.3","","blank","",""
"4716","<img src= stimuli/temporalOrder/83.png width = '400' height = '251.57232704402514'><p>In which room was the object?</p><img src= stimuli/contextMemory/12.png width = '400' height = '251.57232704402514' hspace='5'><img src= stimuli/contextMemory/36.png width = '400' height = '251.57232704402514' hspace='5'><img src= stimuli/contextMemory/6.png width = '400' height = '251.57232704402514' hspace='5'><p>Press 1, 2 or 3.</p>","50","html-keyboard-response","18","647945","0.0-3.0-3.3","","contextMemory","1","83"
"null","<div style=""font-size:60px;"">+</div>","null","html-keyboard-response","19","648448","0.0-3.0-0.4","","fixation","",""
"4562","<img src= stimuli/temporalOrder/58.png width = '400' height = '251.57232704402514'><p>What came before this object?</p><img src= stimuli/temporalOrder/39.png width = '400' height = '251.57232704402514' hspace='5'><img src= stimuli/temporalOrder/0.png width = '400' height = '251.57232704402514' hspace='5'><img src= stimuli/temporalOrder/68.png width = '400' height = '251.57232704402514' hspace='5'><p>Press 1, 2 or 3.</p>","49","html-keyboard-response","20","653019","0.0-3.0-1.4","","temporalOrder","1","58"
"null","","null","html-keyboard-response","21","653522","0.0-3.0-2.4","","blank","",""
"4292","<img src= stimuli/temporalOrder/58.png width = '400' height = '251.57232704402514'><p>In which room was the object?</p><img src= stimuli/contextMemory/9.png width = '400' height = '251.57232704402514' hspace='5'><img src= stimuli/contextMemory/2.png width = '400' height = '251.57232704402514' hspace='5'><img src= stimuli/contextMemory/13.png width = '400' height = '251.57232704402514' hspace='5'><p>Press 1, 2 or 3.</p>","51","html-keyboard-response","22","657820","0.0-3.0-3.4","","contextMemory","2","58"
"null","<div style=""font-size:60px;"">+</div>","null","html-keyboard-response","23","658323","0.0-3.0-0.5","","fixation","",""
"10119","<img src= stimuli/temporalOrder/18.png width = '400' height = '251.57232704402514'><p>What came before this object?</p><img src= stimuli/temporalOrder/31.png width = '400' height = '251.57232704402514' hspace='5'><img src= stimuli/temporalOrder/40.png width = '400' height = '251.57232704402514' hspace='5'><img src= stimuli/temporalOrder/30.png width = '400' height = '251.57232704402514' hspace='5'><p>Press 1, 2 or 3.</p>","51","html-keyboard-response","24","668452","0.0-3.0-1.5","","temporalOrder","2","18"
"null","","null","html-keyboard-response","25","668954","0.0-3.0-2.5","","blank","",""
"6387","<img src= stimuli/temporalOrder/18.png width = '400' height = '251.57232704402514'><p>In which room was the object?</p><img src= stimuli/contextMemory/30.png width = '400' height = '251.57232704402514' hspace='5'><img src= stimuli/contextMemory/34.png width = '400' height = '251.57232704402514' hspace='5'><img src= stimuli/contextMemory/33.png width = '400' height = '251.57232704402514' hspace='5'><p>Press 1, 2 or 3.</p>","51","html-keyboard-response","26","675345","0.0-3.0-3.5","","contextMemory","1","18"
"null","<div style=""font-size:60px;"">+</div>","null","html-keyboard-response","27","675847","0.0-3.0-0.6","","fixation","",""
"7130","<img src= stimuli/temporalOrder/44.png width = '400' height = '251.57232704402514'><p>What came after this object?</p><img src= stimuli/temporalOrder/25.png width = '400' height = '251.57232704402514' hspace='5'><img src= stimuli/temporalOrder/21.png width = '400' height = '251.57232704402514' hspace='5'><img src= stimuli/temporalOrder/71.png width = '400' height = '251.57232704402514' hspace='5'><p>Press 1, 2 or 3.</p>","50","html-keyboard-response","28","682980","0.0-3.0-1.6","","temporalOrder","3","44"
"null","","null","html-keyboard-response","29","683482","0.0-3.0-2.6","","blank","",""
"7289","<img src= stimuli/temporalOrder/44.png width = '400' height = '251.57232704402514'><p>In which room was the object?</p><img src= stimuli/contextMemory/41.png width = '400' height = '251.57232704402514' hspace='5'><img src= stimuli/contextMemory/42.png width = '400' height = '251.57232704402514' hspace='5'><img src= stimuli/contextMemory/4.png width = '400' height = '251.57232704402514' hspace='5'><p>Press 1, 2 or 3.</p>","49","html-keyboard-response","30","690774","0.0-3.0-3.6","","contextMemory","3","44"
"null","<div style=""font-size:60px;"">+</div>","null","html-keyboard-response","31","691276","0.0-3.0-0.7","","fixation","",""
"12216","<img src= stimuli/temporalOrder/73.png width = '400' height = '251.57232704402514'><p>What came before this object?</p><img src= stimuli/temporalOrder/12.png width = '400' height = '251.57232704402514' hspace='5'><img src= stimuli/temporalOrder/57.png width = '400' height = '251.57232704402514' hspace='5'><img src= stimuli/temporalOrder/41.png width = '400' height = '251.57232704402514' hspace='5'><p>Press 1, 2 or 3.</p>","51","html-keyboard-response","32","703494","0.0-3.0-1.7","","temporalOrder","1","73"
"null","","null","html-keyboard-response","33","703996","0.0-3.0-2.7","","blank","",""
"1904.9999999998836","<img src= stimuli/temporalOrder/73.png width = '400' height = '251.57232704402514'><p>In which room was the object?</p><img src= stimuli/contextMemory/35.png width = '400' height = '251.57232704402514' hspace='5'><img src= stimuli/contextMemory/9.png width = '400' height = '251.57232704402514' hspace='5'><img src= stimuli/contextMemory/29.png width = '400' height = '251.57232704402514' hspace='5'><p>Press 1, 2 or 3.</p>","51","html-keyboard-response","34","705903","0.0-3.0-3.7","","contextMemory","2","73"
"null","<div style=""font-size:60px;"">+</div>","null","html-keyboard-response","35","706405","0.0-3.0-0.8","","fixation","",""
"3937","<img src= stimuli/temporalOrder/10.png width = '400' height = '251.57232704402514'><p>What came before this object?</p><img src= stimuli/temporalOrder/20.png width = '400' height = '251.57232704402514' hspace='5'><img src= stimuli/temporalOrder/62.png width = '400' height = '251.57232704402514' hspace='5'><img src= stimuli/temporalOrder/24.png width = '400' height = '251.57232704402514' hspace='5'><p>Press 1, 2 or 3.</p>","49","html-keyboard-response","36","710343","0.0-3.0-1.8","","temporalOrder","1","10"
"null","","null","html-keyboard-response","37","710845","0.0-3.0-2.8","","blank","",""
"2512","<img src= stimuli/temporalOrder/10.png width = '400' height = '251.57232704402514'><p>In which room was the object?</p><img src= stimuli/contextMemory/29.png width = '400' height = '251.57232704402514' hspace='5'><img src= stimuli/contextMemory/22.png width = '400' height = '251.57232704402514' hspace='5'><img src= stimuli/contextMemory/1.png width = '400' height = '251.57232704402514' hspace='5'><p>Press 1, 2 or 3.</p>","50","html-keyboard-response","38","713358","0.0-3.0-3.8","","contextMemory","1","10"
"null","<div style=""font-size:60px;"">+</div>","null","html-keyboard-response","39","713860","0.0-3.0-0.9","","fixation","",""
"5265","<img src= stimuli/temporalOrder/68.png width = '400' height = '251.57232704402514'><p>What came before this object?</p><img src= stimuli/temporalOrder/48.png width = '400' height = '251.57232704402514' hspace='5'><img src= stimuli/temporalOrder/28.png width = '400' height = '251.57232704402514' hspace='5'><img src= stimuli/temporalOrder/2.png width = '400' height = '251.57232704402514' hspace='5'><p>Press 1, 2 or 3.</p>","50","html-keyboard-response","40","719126","0.0-3.0-1.9","","temporalOrder","3","68"
"null","","null","html-keyboard-response","41","719628","0.0-3.0-2.9","","blank","",""
"1901","<img src= stimuli/temporalOrder/68.png width = '400' height = '251.57232704402514'><p>In which room was the object?</p><img src= stimuli/contextMemory/40.png width = '400' height = '251.57232704402514' hspace='5'><img src= stimuli/contextMemory/8.png width = '400' height = '251.57232704402514' hspace='5'><img src= stimuli/contextMemory/42.png width = '400' height = '251.57232704402514' hspace='5'><p>Press 1, 2 or 3.</p>","50","html-keyboard-response","42","721531","0.0-3.0-3.9","","contextMemory","1","68"
"null","<div style=""font-size:60px;"">+</div>","null","html-keyboard-response","43","722033","0.0-3.0-0.10","","fixation","",""
"5268","<img src= stimuli/temporalOrder/82.png width = '400' height = '251.57232704402514'><p>What came before this object?</p><img src= stimuli/temporalOrder/2.png width = '400' height = '251.57232704402514' hspace='5'><img src= stimuli/temporalOrder/24.png width = '400' height = '251.57232704402514' hspace='5'><img src= stimuli/temporalOrder/62.png width = '400' height = '251.57232704402514' hspace='5'><p>Press 1, 2 or 3.</p>","51","html-keyboard-response","44","727302","0.0-3.0-1.10","","temporalOrder","3","82"
"null","","null","html-keyboard-response","45","727804","0.0-3.0-2.10","","blank","",""
"2584","<img src= stimuli/temporalOrder/82.png width = '400' height = '251.57232704402514'><p>In which room was the object?</p><img src= stimuli/contextMemory/13.png width = '400' height = '251.57232704402514' hspace='5'><img src= stimuli/contextMemory/33.png width = '400' height = '251.57232704402514' hspace='5'><img src= stimuli/contextMemory/31.png width = '400' height = '251.57232704402514' hspace='5'><p>Press 1, 2 or 3.</p>","50","html-keyboard-response","46","730390","0.0-3.0-3.10","","contextMemory","2","82"
"null","<div style=""font-size:60px;"">+</div>","null","html-keyboard-response","47","730892","0.0-3.0-0.11","","fixation","",""
"6216.999999999884","<img src= stimuli/temporalOrder/69.png width = '400' height = '251.57232704402514'><p>What came after this object?</p><img src= stimuli/temporalOrder/81.png width = '400' height = '251.57232704402514' hspace='5'><img src= stimuli/temporalOrder/79.png width = '400' height = '251.57232704402514' hspace='5'><img src= stimuli/temporalOrder/75.png width = '400' height = '251.57232704402514' hspace='5'><p>Press 1, 2 or 3.</p>","49","html-keyboard-response","48","737110","0.0-3.0-1.11","","temporalOrder","1","69"
"null","","null","html-keyboard-response","49","737612","0.0-3.0-2.11","","blank","",""
"3227.9999999998836","<img src= stimuli/temporalOrder/69.png width = '400' height = '251.57232704402514'><p>In which room was the object?</p><img src= stimuli/contextMemory/5.png width = '400' height = '251.57232704402514' hspace='5'><img src= stimuli/contextMemory/2.png width = '400' height = '251.57232704402514' hspace='5'><img src= stimuli/contextMemory/32.png width = '400' height = '251.57232704402514' hspace='5'><p>Press 1, 2 or 3.</p>","51","html-keyboard-response","50","740842","0.0-3.0-3.11","","contextMemory","1","69"
"null","<div style=""font-size:60px;"">+</div>","null","html-keyboard-response","51","741344","0.0-3.0-0.12","","fixation","",""
"5177.000000000116","<img src= stimuli/temporalOrder/70.png width = '400' height = '251.57232704402514'><p>What came before this object?</p><img src= stimuli/temporalOrder/50.png width = '400' height = '251.57232704402514' hspace='5'><img src= stimuli/temporalOrder/73.png width = '400' height = '251.57232704402514' hspace='5'><img src= stimuli/temporalOrder/71.png width = '400' height = '251.57232704402514' hspace='5'><p>Press 1, 2 or 3.</p>","51","html-keyboard-response","52","746523","0.0-3.0-1.12","","temporalOrder","3","70"
"null","","null","html-keyboard-response","53","747024","0.0-3.0-2.12","","blank","",""
"3994","<img src= stimuli/temporalOrder/70.png width = '400' height = '251.57232704402514'><p>In which room was the object?</p><img src= stimuli/contextMemory/8.png width = '400' height = '251.57232704402514' hspace='5'><img src= stimuli/contextMemory/14.png width = '400' height = '251.57232704402514' hspace='5'><img src= stimuli/contextMemory/5.png width = '400' height = '251.57232704402514' hspace='5'><p>Press 1, 2 or 3.</p>","50","html-keyboard-response","54","751019","0.0-3.0-3.12","","contextMemory","3","70"
"null","<div style=""font-size:60px;"">+</div>","null","html-keyboard-response","55","751521","0.0-3.0-0.13","","fixation","",""
"3299.9999999998836","<img src= stimuli/temporalOrder/31.png width = '400' height = '251.57232704402514'><p>What came after this object?</p><img src= stimuli/temporalOrder/1.png width = '400' height = '251.57232704402514' hspace='5'><img src= stimuli/temporalOrder/26.png width = '400' height = '251.57232704402514' hspace='5'><img src= stimuli/temporalOrder/11.png width = '400' height = '251.57232704402514' hspace='5'><p>Press 1, 2 or 3.</p>","51","html-keyboard-response","56","754822","0.0-3.0-1.13","","temporalOrder","1","31"
"null","","null","html-keyboard-response","57","755324","0.0-3.0-2.13","","blank","",""
"7692.000000000116","<img src= stimuli/temporalOrder/31.png width = '400' height = '251.57232704402514'><p>In which room was the object?</p><img src= stimuli/contextMemory/6.png width = '400' height = '251.57232704402514' hspace='5'><img src= stimuli/contextMemory/21.png width = '400' height = '251.57232704402514' hspace='5'><img src= stimuli/contextMemory/26.png width = '400' height = '251.57232704402514' hspace='5'><p>Press 1, 2 or 3.</p>","51","html-keyboard-response","58","763017","0.0-3.0-3.13","","contextMemory","3","31"
"null","<div style=""font-size:60px;"">+</div>","null","html-keyboard-response","59","763519","0.0-3.0-0.14","","fixation","",""
"5235","<img src= stimuli/temporalOrder/46.png width = '400' height = '251.57232704402514'><p>What came before this object?</p><img src= stimuli/temporalOrder/70.png width = '400' height = '251.57232704402514' hspace='5'><img src= stimuli/temporalOrder/74.png width = '400' height = '251.57232704402514' hspace='5'><img src= stimuli/temporalOrder/61.png width = '400' height = '251.57232704402514' hspace='5'><p>Press 1, 2 or 3.</p>","50","html-keyboard-response","60","768756","0.0-3.0-1.14","","temporalOrder","3","46"
"null","","null","html-keyboard-response","61","769258","0.0-3.0-2.14","","blank","",""
"2765","<img src= stimuli/temporalOrder/46.png width = '400' height = '251.57232704402514'><p>In which room was the object?</p><img src= stimuli/contextMemory/11.png width = '400' height = '251.57232704402514' hspace='5'><img src= stimuli/contextMemory/34.png width = '400' height = '251.57232704402514' hspace='5'><img src= stimuli/contextMemory/24.png width = '400' height = '251.57232704402514' hspace='5'><p>Press 1, 2 or 3.</p>","50","html-keyboard-response","62","772025","0.0-3.0-3.14","","contextMemory","1","46"
"null","<div style=""font-size:60px;"">+</div>","null","html-keyboard-response","63","772527","0.0-3.0-0.15","","fixation","",""
"9266","<img src= stimuli/temporalOrder/27.png width = '400' height = '251.57232704402514'><p>What came after this object?</p><img src= stimuli/temporalOrder/65.png width = '400' height = '251.57232704402514' hspace='5'><img src= stimuli/temporalOrder/42.png width = '400' height = '251.57232704402514' hspace='5'><img src= stimuli/temporalOrder/12.png width = '400' height = '251.57232704402514' hspace='5'><p>Press 1, 2 or 3.</p>","50","html-keyboard-response","64","781794","0.0-3.0-1.15","","temporalOrder","3","27"
"null","","null","html-keyboard-response","65","782296","0.0-3.0-2.15","","blank","",""
"1780","<img src= stimuli/temporalOrder/27.png width = '400' height = '251.57232704402514'><p>In which room was the object?</p><img src= stimuli/contextMemory/16.png width = '400' height = '251.57232704402514' hspace='5'><img src= stimuli/contextMemory/8.png width = '400' height = '251.57232704402514' hspace='5'><img src= stimuli/contextMemory/24.png width = '400' height = '251.57232704402514' hspace='5'><p>Press 1, 2 or 3.</p>","50","html-keyboard-response","66","784078","0.0-3.0-3.15","","contextMemory","2","27"
"null","<div style=""font-size:60px;"">+</div>","null","html-keyboard-response","67","784580","0.0-3.0-0.16","","fixation","",""
"6778","<img src= stimuli/temporalOrder/80.png width = '400' height = '251.57232704402514'><p>What came before this object?</p><img src= stimuli/temporalOrder/20.png width = '400' height = '251.57232704402514' hspace='5'><img src= stimuli/temporalOrder/29.png width = '400' height = '251.57232704402514' hspace='5'><img src= stimuli/temporalOrder/8.png width = '400' height = '251.57232704402514' hspace='5'><p>Press 1, 2 or 3.</p>","51","html-keyboard-response","68","791360","0.0-3.0-1.16","","temporalOrder","2","80"
"null","","null","html-keyboard-response","69","791862","0.0-3.0-2.16","","blank","",""
"2863.9999999998836","<img src= stimuli/temporalOrder/80.png width = '400' height = '251.57232704402514'><p>In which room was the object?</p><img src= stimuli/contextMemory/2.png width = '400' height = '251.57232704402514' hspace='5'><img src= stimuli/contextMemory/21.png width = '400' height = '251.57232704402514' hspace='5'><img src= stimuli/contextMemory/38.png width = '400' height = '251.57232704402514' hspace='5'><p>Press 1, 2 or 3.</p>","49","html-keyboard-response","70","794728","0.0-3.0-3.16","","contextMemory","2","80"
"null","<div style=""font-size:60px;"">+</div>","null","html-keyboard-response","71","795230","0.0-3.0-0.17","","fixation","",""
"5645","<img src= stimuli/temporalOrder/57.png width = '400' height = '251.57232704402514'><p>What came after this object?</p><img src= stimuli/temporalOrder/25.png width = '400' height = '251.57232704402514' hspace='5'><img src= stimuli/temporalOrder/55.png width = '400' height = '251.57232704402514' hspace='5'><img src= stimuli/temporalOrder/39.png width = '400' height = '251.57232704402514' hspace='5'><p>Press 1, 2 or 3.</p>","50","html-keyboard-response","72","800876","0.0-3.0-1.17","","temporalOrder","2","57"
"null","","null","html-keyboard-response","73","801378","0.0-3.0-2.17","","blank","",""
"4814","<img src= stimuli/temporalOrder/57.png width = '400' height = '251.57232704402514'><p>In which room was the object?</p><img src= stimuli/contextMemory/9.png width = '400' height = '251.57232704402514' hspace='5'><img src= stimuli/contextMemory/36.png width = '400' height = '251.57232704402514' hspace='5'><img src= stimuli/contextMemory/39.png width = '400' height = '251.57232704402514' hspace='5'><p>Press 1, 2 or 3.</p>","49","html-keyboard-response","74","806193","0.0-3.0-3.17","","contextMemory","2","57"
"null","<div style=""font-size:60px;"">+</div>","null","html-keyboard-response","75","806695","0.0-3.0-0.18","","fixation","",""
"3144","<img src= stimuli/temporalOrder/45.png width = '400' height = '251.57232704402514'><p>What came after this object?</p><img src= stimuli/temporalOrder/48.png width = '400' height = '251.57232704402514' hspace='5'><img src= stimuli/temporalOrder/66.png width = '400' height = '251.57232704402514' hspace='5'><img src= stimuli/temporalOrder/6.png width = '400' height = '251.57232704402514' hspace='5'><p>Press 1, 2 or 3.</p>","50","html-keyboard-response","76","809841","0.0-3.0-1.18","","temporalOrder","1","45"
"null","","null","html-keyboard-response","77","810343","0.0-3.0-2.18","","blank","",""
"3418.9999999998836","<img src= stimuli/temporalOrder/45.png width = '400' height = '251.57232704402514'><p>In which room was the object?</p><img src= stimuli/contextMemory/5.png width = '400' height = '251.57232704402514' hspace='5'><img src= stimuli/contextMemory/19.png width = '400' height = '251.57232704402514' hspace='5'><img src= stimuli/contextMemory/28.png width = '400' height = '251.57232704402514' hspace='5'><p>Press 1, 2 or 3.</p>","51","html-keyboard-response","78","813763","0.0-3.0-3.18","","contextMemory","3","45"
"null","<div style=""font-size:60px;"">+</div>","null","html-keyboard-response","79","814265","0.0-3.0-0.19","","fixation","",""
"7669.000000000116","<img src= stimuli/temporalOrder/47.png width = '400' height = '251.57232704402514'><p>What came after this object?</p><img src= stimuli/temporalOrder/4.png width = '400' height = '251.57232704402514' hspace='5'><img src= stimuli/temporalOrder/35.png width = '400' height = '251.57232704402514' hspace='5'><img src= stimuli/temporalOrder/71.png width = '400' height = '251.57232704402514' hspace='5'><p>Press 1, 2 or 3.</p>","50","html-keyboard-response","80","821935","0.0-3.0-1.19","","temporalOrder","1","47"
"null","","null","html-keyboard-response","81","822436","0.0-3.0-2.19","","blank","",""
"2282.0000000001164","<img src= stimuli/temporalOrder/47.png width = '400' height = '251.57232704402514'><p>In which room was the object?</p><img src= stimuli/contextMemory/1.png width = '400' height = '251.57232704402514' hspace='5'><img src= stimuli/contextMemory/40.png width = '400' height = '251.57232704402514' hspace='5'><img src= stimuli/contextMemory/2.png width = '400' height = '251.57232704402514' hspace='5'><p>Press 1, 2 or 3.</p>","50","html-keyboard-response","82","824720","0.0-3.0-3.19","","contextMemory","1","47"
"null","<div style=""font-size:60px;"">+</div>","null","html-keyboard-response","83","825222","0.0-3.0-0.20","","fixation","",""
"4422","<img src= stimuli/temporalOrder/24.png width = '400' height = '251.57232704402514'><p>What came after this object?</p><img src= stimuli/temporalOrder/13.png width = '400' height = '251.57232704402514' hspace='5'><img src= stimuli/temporalOrder/56.png width = '400' height = '251.57232704402514' hspace='5'><img src= stimuli/temporalOrder/22.png width = '400' height = '251.57232704402514' hspace='5'><p>Press 1, 2 or 3.</p>","49","html-keyboard-response","84","829645","0.0-3.0-1.20","","temporalOrder","2","24"
"null","","null","html-keyboard-response","85","830147","0.0-3.0-2.20","","blank","",""
"2244.0000000001164","<img src= stimuli/temporalOrder/24.png width = '400' height = '251.57232704402514'><p>In which room was the object?</p><img src= stimuli/contextMemory/12.png width = '400' height = '251.57232704402514' hspace='5'><img src= stimuli/contextMemory/43.png width = '400' height = '251.57232704402514' hspace='5'><img src= stimuli/contextMemory/24.png width = '400' height = '251.57232704402514' hspace='5'><p>Press 1, 2 or 3.</p>","50","html-keyboard-response","86","832393","0.0-3.0-3.20","","contextMemory","3","24"
"null","<div style=""font-size:60px;"">+</div>","null","html-keyboard-response","87","832895","0.0-3.0-0.21","","fixation","",""
"5087.000000000116","<img src= stimuli/temporalOrder/52.png width = '400' height = '251.57232704402514'><p>What came after this object?</p><img src= stimuli/temporalOrder/30.png width = '400' height = '251.57232704402514' hspace='5'><img src= stimuli/temporalOrder/4.png width = '400' height = '251.57232704402514' hspace='5'><img src= stimuli/temporalOrder/78.png width = '400' height = '251.57232704402514' hspace='5'><p>Press 1, 2 or 3.</p>","50","html-keyboard-response","88","837983","0.0-3.0-1.21","","temporalOrder","1","52"
"null","","null","html-keyboard-response","89","838485","0.0-3.0-2.21","","blank","",""
"3400","<img src= stimuli/temporalOrder/52.png width = '400' height = '251.57232704402514'><p>In which room was the object?</p><img src= stimuli/contextMemory/7.png width = '400' height = '251.57232704402514' hspace='5'><img src= stimuli/contextMemory/14.png width = '400' height = '251.57232704402514' hspace='5'><img src= stimuli/contextMemory/1.png width = '400' height = '251.57232704402514' hspace='5'><p>Press 1, 2 or 3.</p>","49","html-keyboard-response","90","841887","0.0-3.0-3.21","","contextMemory","2","52"
"null","<div style=""font-size:60px;"">+</div>","null","html-keyboard-response","91","842389","0.0-3.0-0.22","","fixation","",""
"4272","<img src= stimuli/temporalOrder/4.png width = '400' height = '251.57232704402514'><p>What came after this object?</p><img src= stimuli/temporalOrder/39.png width = '400' height = '251.57232704402514' hspace='5'><img src= stimuli/temporalOrder/28.png width = '400' height = '251.57232704402514' hspace='5'><img src= stimuli/temporalOrder/31.png width = '400' height = '251.57232704402514' hspace='5'><p>Press 1, 2 or 3.</p>","50","html-keyboard-response","92","846663","0.0-3.0-1.22","","temporalOrder","1","4"
"null","","null","html-keyboard-response","93","847165","0.0-3.0-2.22","","blank","",""
"4024","<img src= stimuli/temporalOrder/4.png width = '400' height = '251.57232704402514'><p>In which room was the object?</p><img src= stimuli/contextMemory/27.png width = '400' height = '251.57232704402514' hspace='5'><img src= stimuli/contextMemory/23.png width = '400' height = '251.57232704402514' hspace='5'><img src= stimuli/contextMemory/1.png width = '400' height = '251.57232704402514' hspace='5'><p>Press 1, 2 or 3.</p>","50","html-keyboard-response","94","851191","0.0-3.0-3.22","","contextMemory","3","4"
"null","<div style=""font-size:60px;"">+</div>","null","html-keyboard-response","95","851693","0.0-3.0-0.23","","fixation","",""
"4535","<img src= stimuli/temporalOrder/37.png width = '400' height = '251.57232704402514'><p>What came after this object?</p><img src= stimuli/temporalOrder/63.png width = '400' height = '251.57232704402514' hspace='5'><img src= stimuli/temporalOrder/61.png width = '400' height = '251.57232704402514' hspace='5'><img src= stimuli/temporalOrder/76.png width = '400' height = '251.57232704402514' hspace='5'><p>Press 1, 2 or 3.</p>","51","html-keyboard-response","96","856230","0.0-3.0-1.23","","temporalOrder","1","37"
"null","","null","html-keyboard-response","97","856731","0.0-3.0-2.23","","blank","",""
"1695","<img src= stimuli/temporalOrder/37.png width = '400' height = '251.57232704402514'><p>In which room was the object?</p><img src= stimuli/contextMemory/2.png width = '400' height = '251.57232704402514' hspace='5'><img src= stimuli/contextMemory/18.png width = '400' height = '251.57232704402514' hspace='5'><img src= stimuli/contextMemory/11.png width = '400' height = '251.57232704402514' hspace='5'><p>Press 1, 2 or 3.</p>","49","html-keyboard-response","98","858426","0.0-3.0-3.23","","contextMemory","2","37"
"null","<div style=""font-size:60px;"">+</div>","null","html-keyboard-response","99","858928","0.0-3.0-0.24","","fixation","",""
"5722","<img src= stimuli/temporalOrder/43.png width = '400' height = '251.57232704402514'><p>What came before this object?</p><img src= stimuli/temporalOrder/9.png width = '400' height = '251.57232704402514' hspace='5'><img src= stimuli/temporalOrder/8.png width = '400' height = '251.57232704402514' hspace='5'><img src= stimuli/temporalOrder/32.png width = '400' height = '251.57232704402514' hspace='5'><p>Press 1, 2 or 3.</p>","50","html-keyboard-response","100","864652","0.0-3.0-1.24","","temporalOrder","3","43"
"null","","null","html-keyboard-response","101","865154","0.0-3.0-2.24","","blank","",""
"6837","<img src= stimuli/temporalOrder/43.png width = '400' height = '251.57232704402514'><p>In which room was the object?</p><img src= stimuli/contextMemory/29.png width = '400' height = '251.57232704402514' hspace='5'><img src= stimuli/contextMemory/33.png width = '400' height = '251.57232704402514' hspace='5'><img src= stimuli/contextMemory/12.png width = '400' height = '251.57232704402514' hspace='5'><p>Press 1, 2 or 3.</p>","50","html-keyboard-response","102","871993","0.0-3.0-3.24","","contextMemory","3","43"
"null","<div style=""font-size:60px;"">+</div>","null","html-keyboard-response","103","872494","0.0-3.0-0.25","","fixation","",""
"4049","<img src= stimuli/temporalOrder/0.png width = '400' height = '251.57232704402514'><p>What came after this object?</p><img src= stimuli/temporalOrder/77.png width = '400' height = '251.57232704402514' hspace='5'><img src= stimuli/temporalOrder/83.png width = '400' height = '251.57232704402514' hspace='5'><img src= stimuli/temporalOrder/8.png width = '400' height = '251.57232704402514' hspace='5'><p>Press 1, 2 or 3.</p>","50","html-keyboard-response","104","876544","0.0-3.0-1.25","","temporalOrder","3","0"
"null","","null","html-keyboard-response","105","877046","0.0-3.0-2.25","","blank","",""
"2806.9999999998836","<img src= stimuli/temporalOrder/0.png width = '400' height = '251.57232704402514'><p>In which room was the object?</p><img src= stimuli/contextMemory/43.png width = '400' height = '251.57232704402514' hspace='5'><img src= stimuli/contextMemory/37.png width = '400' height = '251.57232704402514' hspace='5'><img src= stimuli/contextMemory/9.png width = '400' height = '251.57232704402514' hspace='5'><p>Press 1, 2 or 3.</p>","51","html-keyboard-response","106","879854","0.0-3.0-3.25","","contextMemory","3","0"
"null","<div style=""font-size:60px;"">+</div>","null","html-keyboard-response","107","880356","0.0-3.0-0.26","","fixation","",""
"5053","<img src= stimuli/temporalOrder/63.png width = '400' height = '251.57232704402514'><p>What came before this object?</p><img src= stimuli/temporalOrder/37.png width = '400' height = '251.57232704402514' hspace='5'><img src= stimuli/temporalOrder/12.png width = '400' height = '251.57232704402514' hspace='5'><img src= stimuli/temporalOrder/19.png width = '400' height = '251.57232704402514' hspace='5'><p>Press 1, 2 or 3.</p>","50","html-keyboard-response","108","885410","0.0-3.0-1.26","","temporalOrder","1","63"
"null","","null","html-keyboard-response","109","885912","0.0-3.0-2.26","","blank","",""
"3219.0000000001164","<img src= stimuli/temporalOrder/63.png width = '400' height = '251.57232704402514'><p>In which room was the object?</p><img src= stimuli/contextMemory/14.png width = '400' height = '251.57232704402514' hspace='5'><img src= stimuli/contextMemory/18.png width = '400' height = '251.57232704402514' hspace='5'><img src= stimuli/contextMemory/28.png width = '400' height = '251.57232704402514' hspace='5'><p>Press 1, 2 or 3.</p>","51","html-keyboard-response","110","889133","0.0-3.0-3.26","","contextMemory","2","63"
"null","<div style=""font-size:60px;"">+</div>","null","html-keyboard-response","111","889635","0.0-3.0-0.27","","fixation","",""
"14413","<img src= stimuli/temporalOrder/65.png width = '400' height = '251.57232704402514'><p>What came after this object?</p><img src= stimuli/temporalOrder/3.png width = '400' height = '251.57232704402514' hspace='5'><img src= stimuli/temporalOrder/17.png width = '400' height = '251.57232704402514' hspace='5'><img src= stimuli/temporalOrder/15.png width = '400' height = '251.57232704402514' hspace='5'><p>Press 1, 2 or 3.</p>","49","html-keyboard-response","112","904049","0.0-3.0-1.27","","temporalOrder","2","65"
"null","","null","html-keyboard-response","113","904551","0.0-3.0-2.27","","blank","",""
"1528","<img src= stimuli/temporalOrder/65.png width = '400' height = '251.57232704402514'><p>In which room was the object?</p><img src= stimuli/contextMemory/10.png width = '400' height = '251.57232704402514' hspace='5'><img src= stimuli/contextMemory/16.png width = '400' height = '251.57232704402514' hspace='5'><img src= stimuli/contextMemory/41.png width = '400' height = '251.57232704402514' hspace='5'><p>Press 1, 2 or 3.</p>","49","html-keyboard-response","114","906081","0.0-3.0-3.27","","contextMemory","2","65"
"null","<div style=""font-size:60px;"">+</div>","null","html-keyboard-response","115","906583","0.0-3.0-0.28","","fixation","",""
"5521.999999999884","<img src= stimuli/temporalOrder/76.png width = '400' height = '251.57232704402514'><p>What came before this object?</p><img src= stimuli/temporalOrder/38.png width = '400' height = '251.57232704402514' hspace='5'><img src= stimuli/temporalOrder/13.png width = '400' height = '251.57232704402514' hspace='5'><img src= stimuli/temporalOrder/15.png width = '400' height = '251.57232704402514' hspace='5'><p>Press 1, 2 or 3.</p>","49","html-keyboard-response","116","912107","0.0-3.0-1.28","","temporalOrder","3","76"
"null","","null","html-keyboard-response","117","912609","0.0-3.0-2.28","","blank","",""
"2501","<img src= stimuli/temporalOrder/76.png width = '400' height = '251.57232704402514'><p>In which room was the object?</p><img src= stimuli/contextMemory/34.png width = '400' height = '251.57232704402514' hspace='5'><img src= stimuli/contextMemory/19.png width = '400' height = '251.57232704402514' hspace='5'><img src= stimuli/contextMemory/7.png width = '400' height = '251.57232704402514' hspace='5'><p>Press 1, 2 or 3.</p>","51","html-keyboard-response","118","915111","0.0-3.0-3.28","","contextMemory","2","76"
"null","<div style=""font-size:60px;"">+</div>","null","html-keyboard-response","119","915612","0.0-3.0-0.29","","fixation","",""
"23519.999999999884","<img src= stimuli/temporalOrder/3.png width = '400' height = '251.57232704402514'><p>What came after this object?</p><img src= stimuli/temporalOrder/34.png width = '400' height = '251.57232704402514' hspace='5'><img src= stimuli/temporalOrder/23.png width = '400' height = '251.57232704402514' hspace='5'><img src= stimuli/temporalOrder/86.png width = '400' height = '251.57232704402514' hspace='5'><p>Press 1, 2 or 3.</p>","49","html-keyboard-response","120","939134","0.0-3.0-1.29","","temporalOrder","1","3"
"null","","null","html-keyboard-response","121","939636","0.0-3.0-2.29","","blank","",""
"4157.999999999884","<img src= stimuli/temporalOrder/3.png width = '400' height = '251.57232704402514'><p>In which room was the object?</p><img src= stimuli/contextMemory/15.png width = '400' height = '251.57232704402514' hspace='5'><img src= stimuli/contextMemory/11.png width = '400' height = '251.57232704402514' hspace='5'><img src= stimuli/contextMemory/34.png width = '400' height = '251.57232704402514' hspace='5'><p>Press 1, 2 or 3.</p>","49","html-keyboard-response","122","943795","0.0-3.0-3.29","","contextMemory","3","3"
"null","<div style=""font-size:60px;"">+</div>","null","html-keyboard-response","123","944298","0.0-3.0-0.30","","fixation","",""
"3624","<img src= stimuli/temporalOrder/34.png width = '400' height = '251.57232704402514'><p>What came after this object?</p><img src= stimuli/temporalOrder/16.png width = '400' height = '251.57232704402514' hspace='5'><img src= stimuli/temporalOrder/32.png width = '400' height = '251.57232704402514' hspace='5'><img src= stimuli/temporalOrder/59.png width = '400' height = '251.57232704402514' hspace='5'><p>Press 1, 2 or 3.</p>","49","html-keyboard-response","124","947923","0.0-3.0-1.30","","temporalOrder","1","34"
"null","","null","html-keyboard-response","125","948425","0.0-3.0-2.30","","blank","",""
"2901","<img src= stimuli/temporalOrder/34.png width = '400' height = '251.57232704402514'><p>In which room was the object?</p><img src= stimuli/contextMemory/38.png width = '400' height = '251.57232704402514' hspace='5'><img src= stimuli/contextMemory/18.png width = '400' height = '251.57232704402514' hspace='5'><img src= stimuli/contextMemory/35.png width = '400' height = '251.57232704402514' hspace='5'><p>Press 1, 2 or 3.</p>","50","html-keyboard-response","126","951327","0.0-3.0-3.30","","contextMemory","3","34"
"null","<div style=""font-size:60px;"">+</div>","null","html-keyboard-response","127","951829","0.0-3.0-0.31","","fixation","",""
"6243","<img src= stimuli/temporalOrder/15.png width = '400' height = '251.57232704402514'><p>What came after this object?</p><img src= stimuli/temporalOrder/72.png width = '400' height = '251.57232704402514' hspace='5'><img src= stimuli/temporalOrder/76.png width = '400' height = '251.57232704402514' hspace='5'><img src= stimuli/temporalOrder/35.png width = '400' height = '251.57232704402514' hspace='5'><p>Press 1, 2 or 3.</p>","51","html-keyboard-response","128","958073","0.0-3.0-1.31","","temporalOrder","2","15"
"null","","null","html-keyboard-response","129","958575","0.0-3.0-2.31","","blank","",""
"4011","<img src= stimuli/temporalOrder/15.png width = '400' height = '251.57232704402514'><p>In which room was the object?</p><img src= stimuli/contextMemory/1.png width = '400' height = '251.57232704402514' hspace='5'><img src= stimuli/contextMemory/44.png width = '400' height = '251.57232704402514' hspace='5'><img src= stimuli/contextMemory/19.png width = '400' height = '251.57232704402514' hspace='5'><p>Press 1, 2 or 3.</p>","51","html-keyboard-response","130","962588","0.0-3.0-3.31","","contextMemory","3","15"
"null","<div style=""font-size:60px;"">+</div>","null","html-keyboard-response","131","963090","0.0-3.0-0.32","","fixation","",""
"4546.000000000116","<img src= stimuli/temporalOrder/12.png width = '400' height = '251.57232704402514'><p>What came after this object?</p><img src= stimuli/temporalOrder/11.png width = '400' height = '251.57232704402514' hspace='5'><img src= stimuli/temporalOrder/2.png width = '400' height = '251.57232704402514' hspace='5'><img src= stimuli/temporalOrder/73.png width = '400' height = '251.57232704402514' hspace='5'><p>Press 1, 2 or 3.</p>","49","html-keyboard-response","132","967638","0.0-3.0-1.32","","temporalOrder","3","12"
"null","","null","html-keyboard-response","133","968140","0.0-3.0-2.32","","blank","",""
"3637","<img src= stimuli/temporalOrder/12.png width = '400' height = '251.57232704402514'><p>In which room was the object?</p><img src= stimuli/contextMemory/8.png width = '400' height = '251.57232704402514' hspace='5'><img src= stimuli/contextMemory/31.png width = '400' height = '251.57232704402514' hspace='5'><img src= stimuli/contextMemory/20.png width = '400' height = '251.57232704402514' hspace='5'><p>Press 1, 2 or 3.</p>","51","html-keyboard-response","134","971779","0.0-3.0-3.32","","contextMemory","1","12"
"null","<div style=""font-size:60px;"">+</div>","null","html-keyboard-response","135","972281","0.0-3.0-0.33","","fixation","",""
"2946","<img src= stimuli/temporalOrder/17.png width = '400' height = '251.57232704402514'><p>What came after this object?</p><img src= stimuli/temporalOrder/18.png width = '400' height = '251.57232704402514' hspace='5'><img src= stimuli/temporalOrder/7.png width = '400' height = '251.57232704402514' hspace='5'><img src= stimuli/temporalOrder/36.png width = '400' height = '251.57232704402514' hspace='5'><p>Press 1, 2 or 3.</p>","50","html-keyboard-response","136","975228","0.0-3.0-1.33","","temporalOrder","3","17"
"null","","null","html-keyboard-response","137","975730","0.0-3.0-2.33","","blank","",""
"3932","<img src= stimuli/temporalOrder/17.png width = '400' height = '251.57232704402514'><p>In which room was the object?</p><img src= stimuli/contextMemory/43.png width = '400' height = '251.57232704402514' hspace='5'><img src= stimuli/contextMemory/16.png width = '400' height = '251.57232704402514' hspace='5'><img src= stimuli/contextMemory/7.png width = '400' height = '251.57232704402514' hspace='5'><p>Press 1, 2 or 3.</p>","50","html-keyboard-response","138","979663","0.0-3.0-3.33","","contextMemory","2","17"
"null","<div style=""font-size:60px;"">+</div>","null","html-keyboard-response","139","980165","0.0-3.0-0.34","","fixation","",""
"3486.9999999998836","<img src= stimuli/temporalOrder/49.png width = '400' height = '251.57232704402514'><p>What came after this object?</p><img src= stimuli/temporalOrder/31.png width = '400' height = '251.57232704402514' hspace='5'><img src= stimuli/temporalOrder/53.png width = '400' height = '251.57232704402514' hspace='5'><img src= stimuli/temporalOrder/85.png width = '400' height = '251.57232704402514' hspace='5'><p>Press 1, 2 or 3.</p>","50","html-keyboard-response","140","983654","0.0-3.0-1.34","","temporalOrder","1","49"
"null","","null","html-keyboard-response","141","984156","0.0-3.0-2.34","","blank","",""
"5469.999999999884","<img src= stimuli/temporalOrder/49.png width = '400' height = '251.57232704402514'><p>In which room was the object?</p><img src= stimuli/contextMemory/22.png width = '400' height = '251.57232704402514' hspace='5'><img src= stimuli/contextMemory/10.png width = '400' height = '251.57232704402514' hspace='5'><img src= stimuli/contextMemory/26.png width = '400' height = '251.57232704402514' hspace='5'><p>Press 1, 2 or 3.</p>","51","html-keyboard-response","142","989626","0.0-3.0-3.34","","contextMemory","3","49"
"null","<div style=""font-size:60px;"">+</div>","null","html-keyboard-response","143","990128","0.0-3.0-0.35","","fixation","",""
"14058","<img src= stimuli/temporalOrder/23.png width = '400' height = '251.57232704402514'><p>What came before this object?</p><img src= stimuli/temporalOrder/16.png width = '400' height = '251.57232704402514' hspace='5'><img src= stimuli/temporalOrder/47.png width = '400' height = '251.57232704402514' hspace='5'><img src= stimuli/temporalOrder/20.png width = '400' height = '251.57232704402514' hspace='5'><p>Press 1, 2 or 3.</p>","51","html-keyboard-response","144","1004187","0.0-3.0-1.35","","temporalOrder","1","23"
"null","","null","html-keyboard-response","145","1004690","0.0-3.0-2.35","","blank","",""
"3991.9999999998836","<img src= stimuli/temporalOrder/23.png width = '400' height = '251.57232704402514'><p>In which room was the object?</p><img src= stimuli/contextMemory/41.png width = '400' height = '251.57232704402514' hspace='5'><img src= stimuli/contextMemory/18.png width = '400' height = '251.57232704402514' hspace='5'><img src= stimuli/contextMemory/36.png width = '400' height = '251.57232704402514' hspace='5'><p>Press 1, 2 or 3.</p>","51","html-keyboard-response","146","1008683","0.0-3.0-3.35","","contextMemory","3","23"
"null","<div style=""font-size:60px;"">+</div>","null","html-keyboard-response","147","1009185","0.0-3.0-0.36","","fixation","",""
"6635","<img src= stimuli/temporalOrder/32.png width = '400' height = '251.57232704402514'><p>What came after this object?</p><img src= stimuli/temporalOrder/48.png width = '400' height = '251.57232704402514' hspace='5'><img src= stimuli/temporalOrder/43.png width = '400' height = '251.57232704402514' hspace='5'><img src= stimuli/temporalOrder/27.png width = '400' height = '251.57232704402514' hspace='5'><p>Press 1, 2 or 3.</p>","49","html-keyboard-response","148","1015820","0.0-3.0-1.36","","temporalOrder","2","32"
"null","","null","html-keyboard-response","149","1016322","0.0-3.0-2.36","","blank","",""
"5078","<img src= stimuli/temporalOrder/32.png width = '400' height = '251.57232704402514'><p>In which room was the object?</p><img src= stimuli/contextMemory/27.png width = '400' height = '251.57232704402514' hspace='5'><img src= stimuli/contextMemory/23.png width = '400' height = '251.57232704402514' hspace='5'><img src= stimuli/contextMemory/11.png width = '400' height = '251.57232704402514' hspace='5'><p>Press 1, 2 or 3.</p>","49","html-keyboard-response","150","1021401","0.0-3.0-3.36","","contextMemory","3","32"
"null","<div style=""font-size:60px;"">+</div>","null","html-keyboard-response","151","1021903","0.0-3.0-0.37","","fixation","",""
"7413","<img src= stimuli/temporalOrder/72.png width = '400' height = '251.57232704402514'><p>What came before this object?</p><img src= stimuli/temporalOrder/50.png width = '400' height = '251.57232704402514' hspace='5'><img src= stimuli/temporalOrder/30.png width = '400' height = '251.57232704402514' hspace='5'><img src= stimuli/temporalOrder/54.png width = '400' height = '251.57232704402514' hspace='5'><p>Press 1, 2 or 3.</p>","50","html-keyboard-response","152","1029318","0.0-3.0-1.37","","temporalOrder","2","72"
"null","","null","html-keyboard-response","153","1029820","0.0-3.0-2.37","","blank","",""
"2435.000000000233","<img src= stimuli/temporalOrder/72.png width = '400' height = '251.57232704402514'><p>In which room was the object?</p><img src= stimuli/contextMemory/37.png width = '400' height = '251.57232704402514' hspace='5'><img src= stimuli/contextMemory/15.png width = '400' height = '251.57232704402514' hspace='5'><img src= stimuli/contextMemory/4.png width = '400' height = '251.57232704402514' hspace='5'><p>Press 1, 2 or 3.</p>","49","html-keyboard-response","154","1032257","0.0-3.0-3.37","","contextMemory","2","72"
"null","<div style=""font-size:60px;"">+</div>","null","html-keyboard-response","155","1032759","0.0-3.0-0.38","","fixation","",""
"7833.000000000116","<img src= stimuli/temporalOrder/42.png width = '400' height = '251.57232704402514'><p>What came after this object?</p><img src= stimuli/temporalOrder/14.png width = '400' height = '251.57232704402514' hspace='5'><img src= stimuli/temporalOrder/78.png width = '400' height = '251.57232704402514' hspace='5'><img src= stimuli/temporalOrder/80.png width = '400' height = '251.57232704402514' hspace='5'><p>Press 1, 2 or 3.</p>","49","html-keyboard-response","156","1040594","0.0-3.0-1.38","","temporalOrder","2","42"
"null","","null","html-keyboard-response","157","1041096","0.0-3.0-2.38","","blank","",""
"2087","<img src= stimuli/temporalOrder/42.png width = '400' height = '251.57232704402514'><p>In which room was the object?</p><img src= stimuli/contextMemory/20.png width = '400' height = '251.57232704402514' hspace='5'><img src= stimuli/contextMemory/44.png width = '400' height = '251.57232704402514' hspace='5'><img src= stimuli/contextMemory/39.png width = '400' height = '251.57232704402514' hspace='5'><p>Press 1, 2 or 3.</p>","50","html-keyboard-response","158","1043185","0.0-3.0-3.38","","contextMemory","2","42"
"null","<div style=""font-size:60px;"">+</div>","null","html-keyboard-response","159","1043687","0.0-3.0-0.39","","fixation","",""
"9145.999999999884","<img src= stimuli/temporalOrder/9.png width = '400' height = '251.57232704402514'><p>What came after this object?</p><img src= stimuli/temporalOrder/42.png width = '400' height = '251.57232704402514' hspace='5'><img src= stimuli/temporalOrder/11.png width = '400' height = '251.57232704402514' hspace='5'><img src= stimuli/temporalOrder/7.png width = '400' height = '251.57232704402514' hspace='5'><p>Press 1, 2 or 3.</p>","51","html-keyboard-response","160","1052835","0.0-3.0-1.39","","temporalOrder","2","9"
"null","","null","html-keyboard-response","161","1053337","0.0-3.0-2.39","","blank","",""
"1850","<img src= stimuli/temporalOrder/9.png width = '400' height = '251.57232704402514'><p>In which room was the object?</p><img src= stimuli/contextMemory/15.png width = '400' height = '251.57232704402514' hspace='5'><img src= stimuli/contextMemory/26.png width = '400' height = '251.57232704402514' hspace='5'><img src= stimuli/contextMemory/42.png width = '400' height = '251.57232704402514' hspace='5'><p>Press 1, 2 or 3.</p>","50","html-keyboard-response","162","1055189","0.0-3.0-3.39","","contextMemory","3","9"
"null","<div style=""font-size:60px;"">+</div>","null","html-keyboard-response","163","1055691","0.0-3.0-0.40","","fixation","",""
"3380.000000000233","<img src= stimuli/temporalOrder/60.png width = '400' height = '251.57232704402514'><p>What came before this object?</p><img src= stimuli/temporalOrder/18.png width = '400' height = '251.57232704402514' hspace='5'><img src= stimuli/temporalOrder/51.png width = '400' height = '251.57232704402514' hspace='5'><img src= stimuli/temporalOrder/49.png width = '400' height = '251.57232704402514' hspace='5'><p>Press 1, 2 or 3.</p>","50","html-keyboard-response","164","1059072","0.0-3.0-1.40","","temporalOrder","1","60"
"null","","null","html-keyboard-response","165","1059573","0.0-3.0-2.40","","blank","",""
"4108","<img src= stimuli/temporalOrder/60.png width = '400' height = '251.57232704402514'><p>In which room was the object?</p><img src= stimuli/contextMemory/31.png width = '400' height = '251.57232704402514' hspace='5'><img src= stimuli/contextMemory/39.png width = '400' height = '251.57232704402514' hspace='5'><img src= stimuli/contextMemory/4.png width = '400' height = '251.57232704402514' hspace='5'><p>Press 1, 2 or 3.</p>","49","html-keyboard-response","166","1063683","0.0-3.0-3.40","","contextMemory","1","60"
"null","<div style=""font-size:60px;"">+</div>","null","html-keyboard-response","167","1064185","0.0-3.0-0.41","","fixation","",""
"5213.000000000233","<img src= stimuli/temporalOrder/1.png width = '400' height = '251.57232704402514'><p>What came after this object?</p><img src= stimuli/temporalOrder/59.png width = '400' height = '251.57232704402514' hspace='5'><img src= stimuli/temporalOrder/44.png width = '400' height = '251.57232704402514' hspace='5'><img src= stimuli/temporalOrder/64.png width = '400' height = '251.57232704402514' hspace='5'><p>Press 1, 2 or 3.</p>","49","html-keyboard-response","168","1069400","0.0-3.0-1.41","","temporalOrder","1","1"
"null","","null","html-keyboard-response","169","1069902","0.0-3.0-2.41","","blank","",""
"4283","<img src= stimuli/temporalOrder/1.png width = '400' height = '251.57232704402514'><p>In which room was the object?</p><img src= stimuli/contextMemory/27.png width = '400' height = '251.57232704402514' hspace='5'><img src= stimuli/contextMemory/31.png width = '400' height = '251.57232704402514' hspace='5'><img src= stimuli/contextMemory/33.png width = '400' height = '251.57232704402514' hspace='5'><p>Press 1, 2 or 3.</p>","49","html-keyboard-response","170","1074187","0.0-3.0-3.41","","contextMemory","1","1"
"null","<div style=""font-size:60px;"">+</div>","null","html-keyboard-response","171","1074689","0.0-3.0-0.42","","fixation","",""
"6259","<img src= stimuli/temporalOrder/59.png width = '400' height = '251.57232704402514'><p>What came before this object?</p><img src= stimuli/temporalOrder/55.png width = '400' height = '251.57232704402514' hspace='5'><img src= stimuli/temporalOrder/57.png width = '400' height = '251.57232704402514' hspace='5'><img src= stimuli/temporalOrder/1.png width = '400' height = '251.57232704402514' hspace='5'><p>Press 1, 2 or 3.</p>","51","html-keyboard-response","172","1080950","0.0-3.0-1.42","","temporalOrder","3","59"
"null","","null","html-keyboard-response","173","1081452","0.0-3.0-2.42","","blank","",""
"5688","<img src= stimuli/temporalOrder/59.png width = '400' height = '251.57232704402514'><p>In which room was the object?</p><img src= stimuli/contextMemory/14.png width = '400' height = '251.57232704402514' hspace='5'><img src= stimuli/contextMemory/42.png width = '400' height = '251.57232704402514' hspace='5'><img src= stimuli/contextMemory/27.png width = '400' height = '251.57232704402514' hspace='5'><p>Press 1, 2 or 3.</p>","49","html-keyboard-response","174","1087142","0.0-3.0-3.42","","contextMemory","3","59"
"null","<div style=""font-size:60px;"">+</div>","null","html-keyboard-response","175","1087644","0.0-3.0-0.43","","fixation","",""
"4607","<img src= stimuli/temporalOrder/55.png width = '400' height = '251.57232704402514'><p>What came after this object?</p><img src= stimuli/temporalOrder/21.png width = '400' height = '251.57232704402514' hspace='5'><img src= stimuli/temporalOrder/45.png width = '400' height = '251.57232704402514' hspace='5'><img src= stimuli/temporalOrder/62.png width = '400' height = '251.57232704402514' hspace='5'><p>Press 1, 2 or 3.</p>","50","html-keyboard-response","176","1092252","0.0-3.0-1.43","","temporalOrder","1","55"
"null","","null","html-keyboard-response","177","1092754","0.0-3.0-2.43","","blank","",""
"1384","<img src= stimuli/temporalOrder/55.png width = '400' height = '251.57232704402514'><p>In which room was the object?</p><img src= stimuli/contextMemory/37.png width = '400' height = '251.57232704402514' hspace='5'><img src= stimuli/contextMemory/3.png width = '400' height = '251.57232704402514' hspace='5'><img src= stimuli/contextMemory/40.png width = '400' height = '251.57232704402514' hspace='5'><p>Press 1, 2 or 3.</p>","49","html-keyboard-response","178","1094139","0.0-3.0-3.43","","contextMemory","1","55"
"null","<div style=""font-size:60px;"">+</div>","null","html-keyboard-response","179","1094642","0.0-3.0-0.44","","fixation","",""
"3362","<img src= stimuli/temporalOrder/13.png width = '400' height = '251.57232704402514'><p>What came before this object?</p><img src= stimuli/temporalOrder/68.png width = '400' height = '251.57232704402514' hspace='5'><img src= stimuli/temporalOrder/37.png width = '400' height = '251.57232704402514' hspace='5'><img src= stimuli/temporalOrder/58.png width = '400' height = '251.57232704402514' hspace='5'><p>Press 1, 2 or 3.</p>","50","html-keyboard-response","180","1098004","0.0-3.0-1.44","","temporalOrder","1","13"
"null","","null","html-keyboard-response","181","1098506","0.0-3.0-2.44","","blank","",""
"3865","<img src= stimuli/temporalOrder/13.png width = '400' height = '251.57232704402514'><p>In which room was the object?</p><img src= stimuli/contextMemory/15.png width = '400' height = '251.57232704402514' hspace='5'><img src= stimuli/contextMemory/38.png width = '400' height = '251.57232704402514' hspace='5'><img src= stimuli/contextMemory/40.png width = '400' height = '251.57232704402514' hspace='5'><p>Press 1, 2 or 3.</p>","51","html-keyboard-response","182","1102373","0.0-3.0-3.44","","contextMemory","3","13"
"null","<div style=""font-size:60px;"">+</div>","null","html-keyboard-response","183","1102875","0.0-3.0-0.45","","fixation","",""
"5040","<img src= stimuli/temporalOrder/22.png width = '400' height = '251.57232704402514'><p>What came after this object?</p><img src= stimuli/temporalOrder/83.png width = '400' height = '251.57232704402514' hspace='5'><img src= stimuli/temporalOrder/84.png width = '400' height = '251.57232704402514' hspace='5'><img src= stimuli/temporalOrder/81.png width = '400' height = '251.57232704402514' hspace='5'><p>Press 1, 2 or 3.</p>","50","html-keyboard-response","184","1107916","0.0-3.0-1.45","","temporalOrder","2","22"
"null","","null","html-keyboard-response","185","1108419","0.0-3.0-2.45","","blank","",""
"2861","<img src= stimuli/temporalOrder/22.png width = '400' height = '251.57232704402514'><p>In which room was the object?</p><img src= stimuli/contextMemory/7.png width = '400' height = '251.57232704402514' hspace='5'><img src= stimuli/contextMemory/18.png width = '400' height = '251.57232704402514' hspace='5'><img src= stimuli/contextMemory/24.png width = '400' height = '251.57232704402514' hspace='5'><p>Press 1, 2 or 3.</p>","49","html-keyboard-response","186","1111282","0.0-3.0-3.45","","contextMemory","1","22"
"null","<div style=""font-size:60px;"">+</div>","null","html-keyboard-response","187","1111784","0.0-3.0-0.46","","fixation","",""
"4585.000000000233","<img src= stimuli/temporalOrder/67.png width = '400' height = '251.57232704402514'><p>What came before this object?</p><img src= stimuli/temporalOrder/66.png width = '400' height = '251.57232704402514' hspace='5'><img src= stimuli/temporalOrder/1.png width = '400' height = '251.57232704402514' hspace='5'><img src= stimuli/temporalOrder/54.png width = '400' height = '251.57232704402514' hspace='5'><p>Press 1, 2 or 3.</p>","50","html-keyboard-response","188","1116371","0.0-3.0-1.46","","temporalOrder","1","67"
"null","","null","html-keyboard-response","189","1116872","0.0-3.0-2.46","","blank","",""
"4253","<img src= stimuli/temporalOrder/67.png width = '400' height = '251.57232704402514'><p>In which room was the object?</p><img src= stimuli/contextMemory/28.png width = '400' height = '251.57232704402514' hspace='5'><img src= stimuli/contextMemory/34.png width = '400' height = '251.57232704402514' hspace='5'><img src= stimuli/contextMemory/8.png width = '400' height = '251.57232704402514' hspace='5'><p>Press 1, 2 or 3.</p>","50","html-keyboard-response","190","1121127","0.0-3.0-3.46","","contextMemory","2","67"
"null","<div style=""font-size:60px;"">+</div>","null","html-keyboard-response","191","1121629","0.0-3.0-0.47","","fixation","",""
"3798","<img src= stimuli/temporalOrder/81.png width = '400' height = '251.57232704402514'><p>What came before this object?</p><img src= stimuli/temporalOrder/9.png width = '400' height = '251.57232704402514' hspace='5'><img src= stimuli/temporalOrder/56.png width = '400' height = '251.57232704402514' hspace='5'><img src= stimuli/temporalOrder/69.png width = '400' height = '251.57232704402514' hspace='5'><p>Press 1, 2 or 3.</p>","51","html-keyboard-response","192","1125428","0.0-3.0-1.47","","temporalOrder","3","81"
"null","","null","html-keyboard-response","193","1125930","0.0-3.0-2.47","","blank","",""
"5637","<img src= stimuli/temporalOrder/81.png width = '400' height = '251.57232704402514'><p>In which room was the object?</p><img src= stimuli/contextMemory/9.png width = '400' height = '251.57232704402514' hspace='5'><img src= stimuli/contextMemory/13.png width = '400' height = '251.57232704402514' hspace='5'><img src= stimuli/contextMemory/6.png width = '400' height = '251.57232704402514' hspace='5'><p>Press 1, 2 or 3.</p>","50","html-keyboard-response","194","1131569","0.0-3.0-3.47","","contextMemory","3","81"
"null","<div style=""font-size:60px;"">+</div>","null","html-keyboard-response","195","1132072","0.0-3.0-0.48","","fixation","",""
"2924.999999999767","<img src= stimuli/temporalOrder/19.png width = '400' height = '251.57232704402514'><p>What came before this object?</p><img src= stimuli/temporalOrder/13.png width = '400' height = '251.57232704402514' hspace='5'><img src= stimuli/temporalOrder/5.png width = '400' height = '251.57232704402514' hspace='5'><img src= stimuli/temporalOrder/4.png width = '400' height = '251.57232704402514' hspace='5'><p>Press 1, 2 or 3.</p>","50","html-keyboard-response","196","1134997","0.0-3.0-1.48","","temporalOrder","1","19"
"null","","null","html-keyboard-response","197","1135499","0.0-3.0-2.48","","blank","",""
"2339","<img src= stimuli/temporalOrder/19.png width = '400' height = '251.57232704402514'><p>In which room was the object?</p><img src= stimuli/contextMemory/41.png width = '400' height = '251.57232704402514' hspace='5'><img src= stimuli/contextMemory/23.png width = '400' height = '251.57232704402514' hspace='5'><img src= stimuli/contextMemory/11.png width = '400' height = '251.57232704402514' hspace='5'><p>Press 1, 2 or 3.</p>","49","html-keyboard-response","198","1137839","0.0-3.0-3.48","","contextMemory","1","19"
"null","<div style=""font-size:60px;"">+</div>","null","html-keyboard-response","199","1138341","0.0-3.0-0.49","","fixation","",""
"3944","<img src= stimuli/temporalOrder/11.png width = '400' height = '251.57232704402514'><p>What came after this object?</p><img src= stimuli/temporalOrder/10.png width = '400' height = '251.57232704402514' hspace='5'><img src= stimuli/temporalOrder/80.png width = '400' height = '251.57232704402514' hspace='5'><img src= stimuli/temporalOrder/6.png width = '400' height = '251.57232704402514' hspace='5'><p>Press 1, 2 or 3.</p>","49","html-keyboard-response","200","1142287","0.0-3.0-1.49","","temporalOrder","3","11"
"null","","null","html-keyboard-response","201","1142789","0.0-3.0-2.49","","blank","",""
"2388","<img src= stimuli/temporalOrder/11.png width = '400' height = '251.57232704402514'><p>In which room was the object?</p><img src= stimuli/contextMemory/10.png width = '400' height = '251.57232704402514' hspace='5'><img src= stimuli/contextMemory/42.png width = '400' height = '251.57232704402514' hspace='5'><img src= stimuli/contextMemory/26.png width = '400' height = '251.57232704402514' hspace='5'><p>Press 1, 2 or 3.</p>","51","html-keyboard-response","202","1145178","0.0-3.0-3.49","","contextMemory","2","11"
"null","<div style=""font-size:60px;"">+</div>","null","html-keyboard-response","203","1145680","0.0-3.0-0.50","","fixation","",""
"5692","<img src= stimuli/temporalOrder/54.png width = '400' height = '251.57232704402514'><p>What came after this object?</p><img src= stimuli/temporalOrder/81.png width = '400' height = '251.57232704402514' hspace='5'><img src= stimuli/temporalOrder/58.png width = '400' height = '251.57232704402514' hspace='5'><img src= stimuli/temporalOrder/14.png width = '400' height = '251.57232704402514' hspace='5'><p>Press 1, 2 or 3.</p>","51","html-keyboard-response","204","1151373","0.0-3.0-1.50","","temporalOrder","3","54"
"null","","null","html-keyboard-response","205","1151875","0.0-3.0-2.50","","blank","",""
"3082","<img src= stimuli/temporalOrder/54.png width = '400' height = '251.57232704402514'><p>In which room was the object?</p><img src= stimuli/contextMemory/5.png width = '400' height = '251.57232704402514' hspace='5'><img src= stimuli/contextMemory/38.png width = '400' height = '251.57232704402514' hspace='5'><img src= stimuli/contextMemory/37.png width = '400' height = '251.57232704402514' hspace='5'><p>Press 1, 2 or 3.</p>","49","html-keyboard-response","206","1154959","0.0-3.0-3.50","","contextMemory","2","54"
"null","<div style=""font-size:60px;"">+</div>","null","html-keyboard-response","207","1155461","0.0-3.0-0.51","","fixation","",""
"4430","<img src= stimuli/temporalOrder/51.png width = '400' height = '251.57232704402514'><p>What came before this object?</p><img src= stimuli/temporalOrder/30.png width = '400' height = '251.57232704402514' hspace='5'><img src= stimuli/temporalOrder/76.png width = '400' height = '251.57232704402514' hspace='5'><img src= stimuli/temporalOrder/82.png width = '400' height = '251.57232704402514' hspace='5'><p>Press 1, 2 or 3.</p>","51","html-keyboard-response","208","1159893","0.0-3.0-1.51","","temporalOrder","2","51"
"null","","null","html-keyboard-response","209","1160395","0.0-3.0-2.51","","blank","",""
"2777","<img src= stimuli/temporalOrder/51.png width = '400' height = '251.57232704402514'><p>In which room was the object?</p><img src= stimuli/contextMemory/20.png width = '400' height = '251.57232704402514' hspace='5'><img src= stimuli/contextMemory/3.png width = '400' height = '251.57232704402514' hspace='5'><img src= stimuli/contextMemory/30.png width = '400' height = '251.57232704402514' hspace='5'><p>Press 1, 2 or 3.</p>","51","html-keyboard-response","210","1163174","0.0-3.0-3.51","","contextMemory","1","51"
"null","<div style=""font-size:60px;"">+</div>","null","html-keyboard-response","211","1163676","0.0-3.0-0.52","","fixation","",""
"2680","<img src= stimuli/temporalOrder/50.png width = '400' height = '251.57232704402514'><p>What came before this object?</p><img src= stimuli/temporalOrder/17.png width = '400' height = '251.57232704402514' hspace='5'><img src= stimuli/temporalOrder/56.png width = '400' height = '251.57232704402514' hspace='5'><img src= stimuli/temporalOrder/41.png width = '400' height = '251.57232704402514' hspace='5'><p>Press 1, 2 or 3.</p>","51","html-keyboard-response","212","1166357","0.0-3.0-1.52","","temporalOrder","2","50"
"null","","null","html-keyboard-response","213","1166859","0.0-3.0-2.52","","blank","",""
"2932","<img src= stimuli/temporalOrder/50.png width = '400' height = '251.57232704402514'><p>In which room was the object?</p><img src= stimuli/contextMemory/25.png width = '400' height = '251.57232704402514' hspace='5'><img src= stimuli/contextMemory/44.png width = '400' height = '251.57232704402514' hspace='5'><img src= stimuli/contextMemory/5.png width = '400' height = '251.57232704402514' hspace='5'><p>Press 1, 2 or 3.</p>","51","html-keyboard-response","214","1169793","0.0-3.0-3.52","","contextMemory","1","50"
"null","<div style=""font-size:60px;"">+</div>","null","html-keyboard-response","215","1170295","0.0-3.0-0.53","","fixation","",""
"3818","<img src= stimuli/temporalOrder/2.png width = '400' height = '251.57232704402514'><p>What came before this object?</p><img src= stimuli/temporalOrder/21.png width = '400' height = '251.57232704402514' hspace='5'><img src= stimuli/temporalOrder/60.png width = '400' height = '251.57232704402514' hspace='5'><img src= stimuli/temporalOrder/14.png width = '400' height = '251.57232704402514' hspace='5'><p>Press 1, 2 or 3.</p>","50","html-keyboard-response","216","1174114","0.0-3.0-1.53","","temporalOrder","3","2"
"null","","null","html-keyboard-response","217","1174615","0.0-3.0-2.53","","blank","",""
"3285","<img src= stimuli/temporalOrder/2.png width = '400' height = '251.57232704402514'><p>In which room was the object?</p><img src= stimuli/contextMemory/17.png width = '400' height = '251.57232704402514' hspace='5'><img src= stimuli/contextMemory/39.png width = '400' height = '251.57232704402514' hspace='5'><img src= stimuli/contextMemory/11.png width = '400' height = '251.57232704402514' hspace='5'><p>Press 1, 2 or 3.</p>","49","html-keyboard-response","218","1177902","0.0-3.0-3.53","","contextMemory","2","2"
"null","<div style=""font-size:60px;"">+</div>","null","html-keyboard-response","219","1178403","0.0-3.0-0.54","","fixation","",""
"5081","<img src= stimuli/temporalOrder/41.png width = '400' height = '251.57232704402514'><p>What came after this object?</p><img src= stimuli/temporalOrder/64.png width = '400' height = '251.57232704402514' hspace='5'><img src= stimuli/temporalOrder/72.png width = '400' height = '251.57232704402514' hspace='5'><img src= stimuli/temporalOrder/25.png width = '400' height = '251.57232704402514' hspace='5'><p>Press 1, 2 or 3.</p>","50","html-keyboard-response","220","1183485","0.0-3.0-1.54","","temporalOrder","3","41"
"null","","null","html-keyboard-response","221","1183987","0.0-3.0-2.54","","blank","",""
"2772","<img src= stimuli/temporalOrder/41.png width = '400' height = '251.57232704402514'><p>In which room was the object?</p><img src= stimuli/contextMemory/17.png width = '400' height = '251.57232704402514' hspace='5'><img src= stimuli/contextMemory/6.png width = '400' height = '251.57232704402514' hspace='5'><img src= stimuli/contextMemory/31.png width = '400' height = '251.57232704402514' hspace='5'><p>Press 1, 2 or 3.</p>","49","html-keyboard-response","222","1186761","0.0-3.0-3.54","","contextMemory","3","41"
"null","<div style=""font-size:60px;"">+</div>","null","html-keyboard-response","223","1187263","0.0-3.0-0.55","","fixation","",""
"4934.999999999767","<img src= stimuli/temporalOrder/74.png width = '400' height = '251.57232704402514'><p>What came after this object?</p><img src= stimuli/temporalOrder/44.png width = '400' height = '251.57232704402514' hspace='5'><img src= stimuli/temporalOrder/73.png width = '400' height = '251.57232704402514' hspace='5'><img src= stimuli/temporalOrder/67.png width = '400' height = '251.57232704402514' hspace='5'><p>Press 1, 2 or 3.</p>","51","html-keyboard-response","224","1192200","0.0-3.0-1.55","","temporalOrder","1","74"
"null","","null","html-keyboard-response","225","1192702","0.0-3.0-2.55","","blank","",""
"2121","<img src= stimuli/temporalOrder/74.png width = '400' height = '251.57232704402514'><p>In which room was the object?</p><img src= stimuli/contextMemory/3.png width = '400' height = '251.57232704402514' hspace='5'><img src= stimuli/contextMemory/44.png width = '400' height = '251.57232704402514' hspace='5'><img src= stimuli/contextMemory/24.png width = '400' height = '251.57232704402514' hspace='5'><p>Press 1, 2 or 3.</p>","50","html-keyboard-response","226","1194825","0.0-3.0-3.55","","contextMemory","1","74"
"null","<div style=""font-size:60px;"">+</div>","null","html-keyboard-response","227","1195327","0.0-3.0-0.56","","fixation","",""
"7670","<img src= stimuli/temporalOrder/87.png width = '400' height = '251.57232704402514'><p>What came after this object?</p><img src= stimuli/temporalOrder/17.png width = '400' height = '251.57232704402514' hspace='5'><img src= stimuli/temporalOrder/70.png width = '400' height = '251.57232704402514' hspace='5'><img src= stimuli/temporalOrder/85.png width = '400' height = '251.57232704402514' hspace='5'><p>Press 1, 2 or 3.</p>","49","html-keyboard-response","228","1202998","0.0-3.0-1.56","","temporalOrder","3","87"
"null","","null","html-keyboard-response","229","1203500","0.0-3.0-2.56","","blank","",""
"3628","<img src= stimuli/temporalOrder/87.png width = '400' height = '251.57232704402514'><p>In which room was the object?</p><img src= stimuli/contextMemory/22.png width = '400' height = '251.57232704402514' hspace='5'><img src= stimuli/contextMemory/35.png width = '400' height = '251.57232704402514' hspace='5'><img src= stimuli/contextMemory/27.png width = '400' height = '251.57232704402514' hspace='5'><p>Press 1, 2 or 3.</p>","50","html-keyboard-response","230","1207130","0.0-3.0-3.56","","contextMemory","1","87"
"null","<div style=""font-size:60px;"">+</div>","null","html-keyboard-response","231","1207632","0.0-3.0-0.57","","fixation","",""
"2744","<img src= stimuli/temporalOrder/7.png width = '400' height = '251.57232704402514'><p>What came before this object?</p><img src= stimuli/temporalOrder/87.png width = '400' height = '251.57232704402514' hspace='5'><img src= stimuli/temporalOrder/19.png width = '400' height = '251.57232704402514' hspace='5'><img src= stimuli/temporalOrder/85.png width = '400' height = '251.57232704402514' hspace='5'><p>Press 1, 2 or 3.</p>","50","html-keyboard-response","232","1210377","0.0-3.0-1.57","","temporalOrder","2","7"
"null","","null","html-keyboard-response","233","1210879","0.0-3.0-2.57","","blank","",""
"2705.999999999767","<img src= stimuli/temporalOrder/7.png width = '400' height = '251.57232704402514'><p>In which room was the object?</p><img src= stimuli/contextMemory/34.png width = '400' height = '251.57232704402514' hspace='5'><img src= stimuli/contextMemory/40.png width = '400' height = '251.57232704402514' hspace='5'><img src= stimuli/contextMemory/41.png width = '400' height = '251.57232704402514' hspace='5'><p>Press 1, 2 or 3.</p>","51","html-keyboard-response","234","1213587","0.0-3.0-3.57","","contextMemory","3","7"
"null","<div style=""font-size:60px;"">+</div>","null","html-keyboard-response","235","1214089","0.0-3.0-0.58","","fixation","",""
"2048","<img src= stimuli/temporalOrder/35.png width = '400' height = '251.57232704402514'><p>What came before this object?</p><img src= stimuli/temporalOrder/1.png width = '400' height = '251.57232704402514' hspace='5'><img src= stimuli/temporalOrder/27.png width = '400' height = '251.57232704402514' hspace='5'><img src= stimuli/temporalOrder/58.png width = '400' height = '251.57232704402514' hspace='5'><p>Press 1, 2 or 3.</p>","50","html-keyboard-response","236","1216138","0.0-3.0-1.58","","temporalOrder","3","35"
"null","","null","html-keyboard-response","237","1216640","0.0-3.0-2.58","","blank","",""
"1948","<img src= stimuli/temporalOrder/35.png width = '400' height = '251.57232704402514'><p>In which room was the object?</p><img src= stimuli/contextMemory/3.png width = '400' height = '251.57232704402514' hspace='5'><img src= stimuli/contextMemory/8.png width = '400' height = '251.57232704402514' hspace='5'><img src= stimuli/contextMemory/32.png width = '400' height = '251.57232704402514' hspace='5'><p>Press 1, 2 or 3.</p>","49","html-keyboard-response","238","1218589","0.0-3.0-3.58","","contextMemory","1","35"
"null","<div style=""font-size:60px;"">+</div>","null","html-keyboard-response","239","1219091","0.0-3.0-0.59","","fixation","",""
"3478","<img src= stimuli/temporalOrder/16.png width = '400' height = '251.57232704402514'><p>What came after this object?</p><img src= stimuli/temporalOrder/44.png width = '400' height = '251.57232704402514' hspace='5'><img src= stimuli/temporalOrder/23.png width = '400' height = '251.57232704402514' hspace='5'><img src= stimuli/temporalOrder/15.png width = '400' height = '251.57232704402514' hspace='5'><p>Press 1, 2 or 3.</p>","51","html-keyboard-response","240","1222571","0.0-3.0-1.59","","temporalOrder","2","16"
"null","","null","html-keyboard-response","241","1223073","0.0-3.0-2.59","","blank","",""
"1926","<img src= stimuli/temporalOrder/16.png width = '400' height = '251.57232704402514'><p>In which room was the object?</p><img src= stimuli/contextMemory/35.png width = '400' height = '251.57232704402514' hspace='5'><img src= stimuli/contextMemory/4.png width = '400' height = '251.57232704402514' hspace='5'><img src= stimuli/contextMemory/39.png width = '400' height = '251.57232704402514' hspace='5'><p>Press 1, 2 or 3.</p>","50","html-keyboard-response","242","1225001","0.0-3.0-3.59","","contextMemory","1","16"
"null","<div style=""font-size:60px;"">+</div>","null","html-keyboard-response","243","1225502","0.0-3.0-0.60","","fixation","",""
"7417","<img src= stimuli/temporalOrder/61.png width = '400' height = '251.57232704402514'><p>What came before this object?</p><img src= stimuli/temporalOrder/8.png width = '400' height = '251.57232704402514' hspace='5'><img src= stimuli/temporalOrder/36.png width = '400' height = '251.57232704402514' hspace='5'><img src= stimuli/temporalOrder/10.png width = '400' height = '251.57232704402514' hspace='5'><p>Press 1, 2 or 3.</p>","50","html-keyboard-response","244","1232921","0.0-3.0-1.60","","temporalOrder","1","61"
"null","","null","html-keyboard-response","245","1233423","0.0-3.0-2.60","","blank","",""
"2042.0000000002328","<img src= stimuli/temporalOrder/61.png width = '400' height = '251.57232704402514'><p>In which room was the object?</p><img src= stimuli/contextMemory/28.png width = '400' height = '251.57232704402514' hspace='5'><img src= stimuli/contextMemory/10.png width = '400' height = '251.57232704402514' hspace='5'><img src= stimuli/contextMemory/33.png width = '400' height = '251.57232704402514' hspace='5'><p>Press 1, 2 or 3.</p>","51","html-keyboard-response","246","1235467","0.0-3.0-3.60","","contextMemory","2","61"
"null","<div style=""font-size:60px;"">+</div>","null","html-keyboard-response","247","1235969","0.0-3.0-0.61","","fixation","",""
"5463","<img src= stimuli/temporalOrder/48.png width = '400' height = '251.57232704402514'><p>What came after this object?</p><img src= stimuli/temporalOrder/20.png width = '400' height = '251.57232704402514' hspace='5'><img src= stimuli/temporalOrder/51.png width = '400' height = '251.57232704402514' hspace='5'><img src= stimuli/temporalOrder/37.png width = '400' height = '251.57232704402514' hspace='5'><p>Press 1, 2 or 3.</p>","49","html-keyboard-response","248","1241433","0.0-3.0-1.61","","temporalOrder","1","48"
"null","","null","html-keyboard-response","249","1241935","0.0-3.0-2.61","","blank","",""
"5232.000000000233","<img src= stimuli/temporalOrder/48.png width = '400' height = '251.57232704402514'><p>In which room was the object?</p><img src= stimuli/contextMemory/28.png width = '400' height = '251.57232704402514' hspace='5'><img src= stimuli/contextMemory/6.png width = '400' height = '251.57232704402514' hspace='5'><img src= stimuli/contextMemory/12.png width = '400' height = '251.57232704402514' hspace='5'><p>Press 1, 2 or 3.</p>","50","html-keyboard-response","250","1247169","0.0-3.0-3.61","","contextMemory","1","48"
"null","<div style=""font-size:60px;"">+</div>","null","html-keyboard-response","251","1247671","0.0-3.0-0.62","","fixation","",""
"3443","<img src= stimuli/temporalOrder/53.png width = '400' height = '251.57232704402514'><p>What came before this object?</p><img src= stimuli/temporalOrder/26.png width = '400' height = '251.57232704402514' hspace='5'><img src= stimuli/temporalOrder/22.png width = '400' height = '251.57232704402514' hspace='5'><img src= stimuli/temporalOrder/64.png width = '400' height = '251.57232704402514' hspace='5'><p>Press 1, 2 or 3.</p>","50","html-keyboard-response","252","1251115","0.0-3.0-1.62","","temporalOrder","3","53"
"null","","null","html-keyboard-response","253","1251618","0.0-3.0-2.62","","blank","",""
"4444.000000000233","<img src= stimuli/temporalOrder/53.png width = '400' height = '251.57232704402514'><p>In which room was the object?</p><img src= stimuli/contextMemory/21.png width = '400' height = '251.57232704402514' hspace='5'><img src= stimuli/contextMemory/13.png width = '400' height = '251.57232704402514' hspace='5'><img src= stimuli/contextMemory/12.png width = '400' height = '251.57232704402514' hspace='5'><p>Press 1, 2 or 3.</p>","50","html-keyboard-response","254","1256063","0.0-3.0-3.62","","contextMemory","2","53"
"null","<div style=""font-size:60px;"">+</div>","null","html-keyboard-response","255","1256565","0.0-3.0-0.63","","fixation","",""
"11945","<img src= stimuli/temporalOrder/66.png width = '400' height = '251.57232704402514'><p>What came before this object?</p><img src= stimuli/temporalOrder/0.png width = '400' height = '251.57232704402514' hspace='5'><img src= stimuli/temporalOrder/68.png width = '400' height = '251.57232704402514' hspace='5'><img src= stimuli/temporalOrder/82.png width = '400' height = '251.57232704402514' hspace='5'><p>Press 1, 2 or 3.</p>","51","html-keyboard-response","256","1268512","0.0-3.0-1.63","","temporalOrder","3","66"
"null","","null","html-keyboard-response","257","1269014","0.0-3.0-2.63","","blank","",""
"5271","<img src= stimuli/temporalOrder/66.png width = '400' height = '251.57232704402514'><p>In which room was the object?</p><img src= stimuli/contextMemory/41.png width = '400' height = '251.57232704402514' hspace='5'><img src= stimuli/contextMemory/33.png width = '400' height = '251.57232704402514' hspace='5'><img src= stimuli/contextMemory/26.png width = '400' height = '251.57232704402514' hspace='5'><p>Press 1, 2 or 3.</p>","49","html-keyboard-response","258","1274287","0.0-3.0-3.63","","contextMemory","2","66"
"null","<div style=""font-size:60px;"">+</div>","null","html-keyboard-response","259","1274789","0.0-3.0-0.64","","fixation","",""
"10774","<img src= stimuli/temporalOrder/85.png width = '400' height = '251.57232704402514'><p>What came before this object?</p><img src= stimuli/temporalOrder/87.png width = '400' height = '251.57232704402514' hspace='5'><img src= stimuli/temporalOrder/23.png width = '400' height = '251.57232704402514' hspace='5'><img src= stimuli/temporalOrder/34.png width = '400' height = '251.57232704402514' hspace='5'><p>Press 1, 2 or 3.</p>","51","html-keyboard-response","260","1285565","0.0-3.0-1.64","","temporalOrder","1","85"
"null","","null","html-keyboard-response","261","1286067","0.0-3.0-2.64","","blank","",""
"2273.000000000233","<img src= stimuli/temporalOrder/85.png width = '400' height = '251.57232704402514'><p>In which room was the object?</p><img src= stimuli/contextMemory/35.png width = '400' height = '251.57232704402514' hspace='5'><img src= stimuli/contextMemory/23.png width = '400' height = '251.57232704402514' hspace='5'><img src= stimuli/contextMemory/25.png width = '400' height = '251.57232704402514' hspace='5'><p>Press 1, 2 or 3.</p>","49","html-keyboard-response","262","1288342","0.0-3.0-3.64","","contextMemory","2","85"
"null","<div style=""font-size:60px;"">+</div>","null","html-keyboard-response","263","1288843","0.0-3.0-0.65","","fixation","",""
"4192","<img src= stimuli/temporalOrder/64.png width = '400' height = '251.57232704402514'><p>What came before this object?</p><img src= stimuli/temporalOrder/29.png width = '400' height = '251.57232704402514' hspace='5'><img src= stimuli/temporalOrder/83.png width = '400' height = '251.57232704402514' hspace='5'><img src= stimuli/temporalOrder/32.png width = '400' height = '251.57232704402514' hspace='5'><p>Press 1, 2 or 3.</p>","51","html-keyboard-response","264","1293037","0.0-3.0-1.65","","temporalOrder","2","64"
"null","","null","html-keyboard-response","265","1293539","0.0-3.0-2.65","","blank","",""
"3815","<img src= stimuli/temporalOrder/64.png width = '400' height = '251.57232704402514'><p>In which room was the object?</p><img src= stimuli/contextMemory/13.png width = '400' height = '251.57232704402514' hspace='5'><img src= stimuli/contextMemory/29.png width = '400' height = '251.57232704402514' hspace='5'><img src= stimuli/contextMemory/28.png width = '400' height = '251.57232704402514' hspace='5'><p>Press 1, 2 or 3.</p>","49","html-keyboard-response","266","1297356","0.0-3.0-3.65","","contextMemory","1","64"
"null","<div style=""font-size:60px;"">+</div>","null","html-keyboard-response","267","1297858","0.0-3.0-0.66","","fixation","",""
"5058","<img src= stimuli/temporalOrder/77.png width = '400' height = '251.57232704402514'><p>What came before this object?</p><img src= stimuli/temporalOrder/76.png width = '400' height = '251.57232704402514' hspace='5'><img src= stimuli/temporalOrder/36.png width = '400' height = '251.57232704402514' hspace='5'><img src= stimuli/temporalOrder/81.png width = '400' height = '251.57232704402514' hspace='5'><p>Press 1, 2 or 3.</p>","50","html-keyboard-response","268","1302918","0.0-3.0-1.66","","temporalOrder","3","77"
"null","","null","html-keyboard-response","269","1303420","0.0-3.0-2.66","","blank","",""
"3991","<img src= stimuli/temporalOrder/77.png width = '400' height = '251.57232704402514'><p>In which room was the object?</p><img src= stimuli/contextMemory/3.png width = '400' height = '251.57232704402514' hspace='5'><img src= stimuli/contextMemory/6.png width = '400' height = '251.57232704402514' hspace='5'><img src= stimuli/contextMemory/37.png width = '400' height = '251.57232704402514' hspace='5'><p>Press 1, 2 or 3.</p>","50","html-keyboard-response","270","1307413","0.0-3.0-3.66","","contextMemory","2","77"
"null","<div style=""font-size:60px;"">+</div>","null","html-keyboard-response","271","1307915","0.0-3.0-0.67","","fixation","",""
"4546","<img src= stimuli/temporalOrder/62.png width = '400' height = '251.57232704402514'><p>What came before this object?</p><img src= stimuli/temporalOrder/25.png width = '400' height = '251.57232704402514' hspace='5'><img src= stimuli/temporalOrder/33.png width = '400' height = '251.57232704402514' hspace='5'><img src= stimuli/temporalOrder/49.png width = '400' height = '251.57232704402514' hspace='5'><p>Press 1, 2 or 3.</p>","50","html-keyboard-response","272","1312463","0.0-3.0-1.67","","temporalOrder","1","62"
"null","","null","html-keyboard-response","273","1312964","0.0-3.0-2.67","","blank","",""
"2626.000000000233","<img src= stimuli/temporalOrder/62.png width = '400' height = '251.57232704402514'><p>In which room was the object?</p><img src= stimuli/contextMemory/32.png width = '400' height = '251.57232704402514' hspace='5'><img src= stimuli/contextMemory/21.png width = '400' height = '251.57232704402514' hspace='5'><img src= stimuli/contextMemory/23.png width = '400' height = '251.57232704402514' hspace='5'><p>Press 1, 2 or 3.</p>","51","html-keyboard-response","274","1315592","0.0-3.0-3.67","","contextMemory","1","62"
"null","<div style=""font-size:60px;"">+</div>","null","html-keyboard-response","275","1316094","0.0-3.0-0.68","","fixation","",""
"4245","<img src= stimuli/temporalOrder/40.png width = '400' height = '251.57232704402514'><p>What came after this object?</p><img src= stimuli/temporalOrder/71.png width = '400' height = '251.57232704402514' hspace='5'><img src= stimuli/temporalOrder/53.png width = '400' height = '251.57232704402514' hspace='5'><img src= stimuli/temporalOrder/18.png width = '400' height = '251.57232704402514' hspace='5'><p>Press 1, 2 or 3.</p>","51","html-keyboard-response","276","1320340","0.0-3.0-1.68","","temporalOrder","3","40"
"null","","null","html-keyboard-response","277","1320841","0.0-3.0-2.68","","blank","",""
"4438","<img src= stimuli/temporalOrder/40.png width = '400' height = '251.57232704402514'><p>In which room was the object?</p><img src= stimuli/contextMemory/30.png width = '400' height = '251.57232704402514' hspace='5'><img src= stimuli/contextMemory/36.png width = '400' height = '251.57232704402514' hspace='5'><img src= stimuli/contextMemory/19.png width = '400' height = '251.57232704402514' hspace='5'><p>Press 1, 2 or 3.</p>","49","html-keyboard-response","278","1325280","0.0-3.0-3.68","","contextMemory","1","40"
"null","<div style=""font-size:60px;"">+</div>","null","html-keyboard-response","279","1325782","0.0-3.0-0.69","","fixation","",""
"2887","<img src= stimuli/temporalOrder/14.png width = '400' height = '251.57232704402514'><p>What came before this object?</p><img src= stimuli/temporalOrder/40.png width = '400' height = '251.57232704402514' hspace='5'><img src= stimuli/temporalOrder/78.png width = '400' height = '251.57232704402514' hspace='5'><img src= stimuli/temporalOrder/54.png width = '400' height = '251.57232704402514' hspace='5'><p>Press 1, 2 or 3.</p>","49","html-keyboard-response","280","1328671","0.0-3.0-1.69","","temporalOrder","3","14"
"null","","null","html-keyboard-response","281","1329173","0.0-3.0-2.69","","blank","",""
"1773.0000000002328","<img src= stimuli/temporalOrder/14.png width = '400' height = '251.57232704402514'><p>In which room was the object?</p><img src= stimuli/contextMemory/39.png width = '400' height = '251.57232704402514' hspace='5'><img src= stimuli/contextMemory/19.png width = '400' height = '251.57232704402514' hspace='5'><img src= stimuli/contextMemory/9.png width = '400' height = '251.57232704402514' hspace='5'><p>Press 1, 2 or 3.</p>","50","html-keyboard-response","282","1330947","0.0-3.0-3.69","","contextMemory","1","14"
"null","<div style=""font-size:60px;"">+</div>","null","html-keyboard-response","283","1331449","0.0-3.0-0.70","","fixation","",""
"5095","<img src= stimuli/temporalOrder/33.png width = '400' height = '251.57232704402514'><p>What came after this object?</p><img src= stimuli/temporalOrder/63.png width = '400' height = '251.57232704402514' hspace='5'><img src= stimuli/temporalOrder/84.png width = '400' height = '251.57232704402514' hspace='5'><img src= stimuli/temporalOrder/24.png width = '400' height = '251.57232704402514' hspace='5'><p>Press 1, 2 or 3.</p>","51","html-keyboard-response","284","1336546","0.0-3.0-1.70","","temporalOrder","3","33"
"null","","null","html-keyboard-response","285","1337048","0.0-3.0-2.70","","blank","",""
"2396","<img src= stimuli/temporalOrder/33.png width = '400' height = '251.57232704402514'><p>In which room was the object?</p><img src= stimuli/contextMemory/44.png width = '400' height = '251.57232704402514' hspace='5'><img src= stimuli/contextMemory/24.png width = '400' height = '251.57232704402514' hspace='5'><img src= stimuli/contextMemory/4.png width = '400' height = '251.57232704402514' hspace='5'><p>Press 1, 2 or 3.</p>","51","html-keyboard-response","286","1339446","0.0-3.0-3.70","","contextMemory","2","33"
"null","<div style=""font-size:60px;"">+</div>","null","html-keyboard-response","287","1339948","0.0-3.0-0.71","","fixation","",""
"4470.000000000233","<img src= stimuli/temporalOrder/28.png width = '400' height = '251.57232704402514'><p>What came after this object?</p><img src= stimuli/temporalOrder/69.png width = '400' height = '251.57232704402514' hspace='5'><img src= stimuli/temporalOrder/33.png width = '400' height = '251.57232704402514' hspace='5'><img src= stimuli/temporalOrder/40.png width = '400' height = '251.57232704402514' hspace='5'><p>Press 1, 2 or 3.</p>","51","html-keyboard-response","288","1344418","0.0-3.0-1.71","","temporalOrder","2","28"
"null","","null","html-keyboard-response","289","1344921","0.0-3.0-2.71","","blank","",""
"1475","<img src= stimuli/temporalOrder/28.png width = '400' height = '251.57232704402514'><p>In which room was the object?</p><img src= stimuli/contextMemory/36.png width = '400' height = '251.57232704402514' hspace='5'><img src= stimuli/contextMemory/23.png width = '400' height = '251.57232704402514' hspace='5'><img src= stimuli/contextMemory/32.png width = '400' height = '251.57232704402514' hspace='5'><p>Press 1, 2 or 3.</p>","50","html-keyboard-response","290","1346397","0.0-3.0-3.71","","contextMemory","2","28"
"null","<div style=""font-size:60px;"">+</div>","null","html-keyboard-response","291","1346899","0.0-3.0-0.72","","fixation","",""
"4422.000000000233","<img src= stimuli/temporalOrder/84.png width = '400' height = '251.57232704402514'><p>What came before this object?</p><img src= stimuli/temporalOrder/65.png width = '400' height = '251.57232704402514' hspace='5'><img src= stimuli/temporalOrder/6.png width = '400' height = '251.57232704402514' hspace='5'><img src= stimuli/temporalOrder/22.png width = '400' height = '251.57232704402514' hspace='5'><p>Press 1, 2 or 3.</p>","49","html-keyboard-response","292","1351323","0.0-3.0-1.72","","temporalOrder","3","84"
"null","","null","html-keyboard-response","293","1351825","0.0-3.0-2.72","","blank","",""
"2125","<img src= stimuli/temporalOrder/84.png width = '400' height = '251.57232704402514'><p>In which room was the object?</p><img src= stimuli/contextMemory/35.png width = '400' height = '251.57232704402514' hspace='5'><img src= stimuli/contextMemory/7.png width = '400' height = '251.57232704402514' hspace='5'><img src= stimuli/contextMemory/27.png width = '400' height = '251.57232704402514' hspace='5'><p>Press 1, 2 or 3.</p>","50","html-keyboard-response","294","1353952","0.0-3.0-3.72","","contextMemory","2","84"
"null","<div style=""font-size:60px;"">+</div>","null","html-keyboard-response","295","1354454","0.0-3.0-0.73","","fixation","",""
"5185","<img src= stimuli/temporalOrder/21.png width = '400' height = '251.57232704402514'><p>What came after this object?</p><img src= stimuli/temporalOrder/46.png width = '400' height = '251.57232704402514' hspace='5'><img src= stimuli/temporalOrder/75.png width = '400' height = '251.57232704402514' hspace='5'><img src= stimuli/temporalOrder/16.png width = '400' height = '251.57232704402514' hspace='5'><p>Press 1, 2 or 3.</p>","50","html-keyboard-response","296","1359640","0.0-3.0-1.73","","temporalOrder","2","21"
"null","","null","html-keyboard-response","297","1360142","0.0-3.0-2.73","","blank","",""
"1950","<img src= stimuli/temporalOrder/21.png width = '400' height = '251.57232704402514'><p>In which room was the object?</p><img src= stimuli/contextMemory/37.png width = '400' height = '251.57232704402514' hspace='5'><img src= stimuli/contextMemory/7.png width = '400' height = '251.57232704402514' hspace='5'><img src= stimuli/contextMemory/1.png width = '400' height = '251.57232704402514' hspace='5'><p>Press 1, 2 or 3.</p>","51","html-keyboard-response","298","1362094","0.0-3.0-3.73","","contextMemory","1","21"
"null","<div style=""font-size:60px;"">+</div>","null","html-keyboard-response","299","1362596","0.0-3.0-0.74","","fixation","",""
"4440","<img src= stimuli/temporalOrder/5.png width = '400' height = '251.57232704402514'><p>What came before this object?</p><img src= stimuli/temporalOrder/36.png width = '400' height = '251.57232704402514' hspace='5'><img src= stimuli/temporalOrder/14.png width = '400' height = '251.57232704402514' hspace='5'><img src= stimuli/temporalOrder/55.png width = '400' height = '251.57232704402514' hspace='5'><p>Press 1, 2 or 3.</p>","49","html-keyboard-response","300","1367038","0.0-3.0-1.74","","temporalOrder","1","5"
"null","","null","html-keyboard-response","301","1367540","0.0-3.0-2.74","","blank","",""
"1862","<img src= stimuli/temporalOrder/5.png width = '400' height = '251.57232704402514'><p>In which room was the object?</p><img src= stimuli/contextMemory/13.png width = '400' height = '251.57232704402514' hspace='5'><img src= stimuli/contextMemory/25.png width = '400' height = '251.57232704402514' hspace='5'><img src= stimuli/contextMemory/17.png width = '400' height = '251.57232704402514' hspace='5'><p>Press 1, 2 or 3.</p>","49","html-keyboard-response","302","1369404","0.0-3.0-3.74","","contextMemory","3","5"
"null","<div style=""font-size:60px;"">+</div>","null","html-keyboard-response","303","1369906","0.0-3.0-0.75","","fixation","",""
"7142","<img src= stimuli/temporalOrder/75.png width = '400' height = '251.57232704402514'><p>What came after this object?</p><img src= stimuli/temporalOrder/56.png width = '400' height = '251.57232704402514' hspace='5'><img src= stimuli/temporalOrder/54.png width = '400' height = '251.57232704402514' hspace='5'><img src= stimuli/temporalOrder/43.png width = '400' height = '251.57232704402514' hspace='5'><p>Press 1, 2 or 3.</p>","51","html-keyboard-response","304","1377050","0.0-3.0-1.75","","temporalOrder","2","75"
"null","","null","html-keyboard-response","305","1377552","0.0-3.0-2.75","","blank","",""
"1750","<img src= stimuli/temporalOrder/75.png width = '400' height = '251.57232704402514'><p>In which room was the object?</p><img src= stimuli/contextMemory/16.png width = '400' height = '251.57232704402514' hspace='5'><img src= stimuli/contextMemory/25.png width = '400' height = '251.57232704402514' hspace='5'><img src= stimuli/contextMemory/38.png width = '400' height = '251.57232704402514' hspace='5'><p>Press 1, 2 or 3.</p>","50","html-keyboard-response","306","1379304","0.0-3.0-3.75","","contextMemory","3","75"
"null","<div style=""font-size:60px;"">+</div>","null","html-keyboard-response","307","1379806","0.0-3.0-0.76","","fixation","",""
"3539","<img src= stimuli/temporalOrder/78.png width = '400' height = '251.57232704402514'><p>What came before this object?</p><img src= stimuli/temporalOrder/61.png width = '400' height = '251.57232704402514' hspace='5'><img src= stimuli/temporalOrder/42.png width = '400' height = '251.57232704402514' hspace='5'><img src= stimuli/temporalOrder/29.png width = '400' height = '251.57232704402514' hspace='5'><p>Press 1, 2 or 3.</p>","51","html-keyboard-response","308","1383347","0.0-3.0-1.76","","temporalOrder","2","78"
"null","","null","html-keyboard-response","309","1383849","0.0-3.0-2.76","","blank","",""
"4239","<img src= stimuli/temporalOrder/78.png width = '400' height = '251.57232704402514'><p>In which room was the object?</p><img src= stimuli/contextMemory/44.png width = '400' height = '251.57232704402514' hspace='5'><img src= stimuli/contextMemory/43.png width = '400' height = '251.57232704402514' hspace='5'><img src= stimuli/contextMemory/3.png width = '400' height = '251.57232704402514' hspace='5'><p>Press 1, 2 or 3.</p>","49","html-keyboard-response","310","1388089","0.0-3.0-3.76","","contextMemory","1","78"
"null","<div style=""font-size:60px;"">+</div>","null","html-keyboard-response","311","1388591","0.0-3.0-0.77","","fixation","",""
"2956","<img src= stimuli/temporalOrder/30.png width = '400' height = '251.57232704402514'><p>What came after this object?</p><img src= stimuli/temporalOrder/43.png width = '400' height = '251.57232704402514' hspace='5'><img src= stimuli/temporalOrder/72.png width = '400' height = '251.57232704402514' hspace='5'><img src= stimuli/temporalOrder/87.png width = '400' height = '251.57232704402514' hspace='5'><p>Press 1, 2 or 3.</p>","50","html-keyboard-response","312","1391549","0.0-3.0-1.77","","temporalOrder","2","30"
