"rt","stimulus","key_press","trial_type","trial_index","time_elapsed","internal_node_id","test_part","worker_id","corr_resp","probe","target","foil1","dist1","foil1Pos","foil2","dist2","foil2Pos","condition","question","roomNum","sameRoom","context"
"11744","<div align=""center"" style='display: flex; flex-direction: column; margin: auto; flex: 1 1 100%; width: 90%; height: 90%;'><div style=""font-family: 'Open Sans', 'Arial', sans-serif; font-size: 150%; line-height: 1.5em;""><p style=""width: 90%; text-align: justify"">We will now present you with questions to test your memory for the objects presented in the film. Each object tested will be presented at the top of the screen and we will ask you three questions about it.<br><br>Press <strong>space</strong> for the next page.","32","html-keyboard-response","0","11754","0.0-0.0","","","","","","","","","","","","","","","",""
"51513","<div align=""center"" style='display: flex; flex-direction: column; margin: auto; flex: 1 1 100%; width: 90%; height: 90%;'><div style=""font-family: 'Open Sans', 'Arial', sans-serif; font-size: 150%; line-height: 1.5em;""><p style=""width: 90%; text-align: justify"">The first question is ‘In the video you just watched, which one of the three objects at the bottom of the screen appeared immediately after this object?'. Under this question you see an image of an object that you saw during the video along with three additional objects at the bottom of the screen. <br><br>Please indicate which of the three objects at the bottom immediately followed that object that is currently probed. The objects at the bottom are labelled 1, 2 and 3. To give your response, please press the respective key on your keyboard.<br><br>Note that it's not enough to just select the object that was presented any time point after the tested object and that for each question there is only one correct answer.<br><br>Press <strong>space</strong> for the next page.","32","html-keyboard-response","1","65283","0.0-1.0","","","","","","","","","","","","","","","",""
"37759","<div align=""center"" style='display: flex; flex-direction: column; margin: auto; flex: 1 1 100%; width: 90%; height: 90%;'><div style=""font-family: 'Open Sans', 'Arial', sans-serif; font-size: 150%; line-height: 1.5em;""><p style=""width: 90%; text-align: justify"">The next question is ‘In the video you just watched, in which room did this object appear?’. For this question you will be presented with two floor plans (sketches of the rooms from a bird's eye perspective) that show the layout of the room (illustrated below).<div class='row'><div class='twoColumn'><p style='float: center; font-size: 20pt; text-align: center;'><img src= 'images/stimuli/nw_room.png' style='width:50%'></p></div><div class='twoColumn'><p style='float: center; font-size: 20pt; text-align: center;'><img src= 'images/stimuli/ww_room.png' style='width:50%'></p></div></div><p style=""width: 90%; text-align: justify"">On the floor plans above, you see the walls, tables and doors of the rooms. For your orientation, the person in the video entered the room from the bottom and left the room through the top door. Apart from the seperating walls in the middle, the layout of the rooms were identical. Please indicate the layout of the room in which the object appeared during the video by choosing between the two options by pressing 1 or 2. <br><br>Press <strong>space</strong> for the next page.","32","html-keyboard-response","2","105060","0.0-2.0","","","","","","","","","","","","","","","",""
"45119","<div align=""center"" style='display: flex; flex-direction: column; margin: auto; flex: 1 1 100%; width: 90%; height: 90%;'><div style=""font-family: 'Open Sans', 'Arial', sans-serif; font-size: 150%; line-height: 1.5em;""><p style=""width: 90%; text-align: justify"">The third question is ‘In the video you just watched, on which table did the object appear?’. At the bottom you will again see a room layout where tables are labelled 1 and 2. </p><p><center><img src= 'images/stimuli/nw_table.png' style='width:33%'></center></p><p style=""width: 90%; text-align: justify"">Even though only one layout is presented here, please indicate the location of the table on which the object appeared, irrespective of the room type. To answer this question, it's important to remember that objects either appeared on the table next to the top door (table 1) or on the table that is in the middle of the right wall (table 2).<br><br>Press <strong>space</strong> for next page.","32","html-keyboard-response","3","152188","0.0-3.0","","","","","","","","","","","","","","","",""
"12176","<div align=""center"" style='display: flex; flex-direction: column; margin: auto; flex: 1 1 100%; width: 90%; height: 90%;'><div style=""font-family: 'Open Sans', 'Arial', sans-serif; font-size: 150%; line-height: 1.5em;""><p style=""width: 90%; text-align: justify"">For all three questions, please try and give the correct answers to the best of your ability and guess if you do not remember. We are aware that this task is quite challenging but please continue to try to do your best until you have completed the experiment. Don't be discouraged if you feel that you don't remember the correct answers. <br><br>Press <strong>space</strong> to begin the task.","32","html-keyboard-response","4","166370","0.0-4.0","","","","","","","","","","","","","","","",""
"null","<div style=""font-size:60px;"">+</div>","null","html-keyboard-response","5","168892","0.0-5.0-0.0","fixation","","","","","","","","","","","","","","",""
"5920","<p>In the video you just watched, which one of the three objects at the bottom of the screen appeared immediately after this object?</p><p><img src= 'images/stimuli/55.png' style='width: 33%'></p><div class='row'><div class='threeColumn'><p style='float: left; font-size: 20pt; text-align: center;'><img src= 'images/stimuli/21.png' style='width:100%'>1</p></div><div class='threeColumn'><p style='float: left; font-size: 20pt; text-align: center;'><img src= 'images/stimuli/37.png' style='width:100%'>2</p></div><div class='threeColumn'><p style='float: left; font-size: 20pt; text-align: center;'><img src= 'images/stimuli/38.png' style='width:100%'>3</p></div></div>","50","html-keyboard-response","6","174828","0.0-5.0-1.0","temporalOrder","8086","1","55","images/stimuli/21.png","images/stimuli/37.png","-38","2","images/stimuli/38.png","13","3","5","In the video you just watched, which one of the three objects at the bottom of the screen appeared immediately after this object?","37","1","within-no-walls"
"null","","null","html-keyboard-response","7","175331","0.0-5.0-2.0","blank","","","","","","","","","","","","","","",""
"3962","<p>In the video you just watched, in which room did this object appear?</p><p><img src= 'images/stimuli/55.png' style='width: 33%'></p><div class='row'><div class='twoColumn'><p style='float: center; font-size: 20pt; text-align: center;'><img src= 'images/stimuli/nw_room.png' style='width:50%'></p></div><div class='twoColumn'><p style='float: center; font-size: 20pt; text-align: center;'><img src= 'images/stimuli/ww_room.png' style='width:50%'></p></div></div><div class='row'><div class='twoColumn'><p style='float: center; font-size: 20pt; text-align: center;'>1</p></div><div class='twoColumn'><p style='float: center; font-size: 20pt; text-align: center;'>2</p></div>","50","html-keyboard-response","8","179298","0.0-5.0-3.0","roomType","8086","1","","","","","","","","","5","","37","",""
"null","","null","html-keyboard-response","9","179800","0.0-5.0-4.0","blank","","","","","","","","","","","","","","",""
"3536","<p>In the video you just watched, on which table did the object appear?</p><p><img src= 'images/stimuli/55.png' style='width: 33%'></p><img src= 'images/stimuli/nw_table.png' style='width:33%'>","50","html-keyboard-response","10","183341","0.0-5.0-5.0","tableNum","8086","2","","","","","","","","","5","","","",""
"null","<div style=""font-size:60px;"">+</div>","null","html-keyboard-response","11","183851","0.0-5.0-0.1","fixation","","","","","","","","","","","","","","",""
"4945","<p>In the video you just watched, which one of the three objects at the bottom of the screen appeared immediately after this object?</p><p><img src= 'images/stimuli/85.png' style='width: 33%'></p><div class='row'><div class='threeColumn'><p style='float: left; font-size: 20pt; text-align: center;'><img src= 'images/stimuli/28.png' style='width:100%'>1</p></div><div class='threeColumn'><p style='float: left; font-size: 20pt; text-align: center;'><img src= 'images/stimuli/1.png' style='width:100%'>2</p></div><div class='threeColumn'><p style='float: left; font-size: 20pt; text-align: center;'><img src= 'images/stimuli/27.png' style='width:100%'>3</p></div></div>","50","html-keyboard-response","12","188805","0.0-5.0-1.1","temporalOrder","8086","1","85","images/stimuli/28.png","images/stimuli/27.png","-30","3","images/stimuli/1.png","8","2","5","In the video you just watched, which one of the three objects at the bottom of the screen appeared immediately after this object?","23","1","within-no-walls"
"null","","null","html-keyboard-response","13","189310","0.0-5.0-2.1","blank","","","","","","","","","","","","","","",""
"1790","<p>In the video you just watched, in which room did this object appear?</p><p><img src= 'images/stimuli/85.png' style='width: 33%'></p><div class='row'><div class='twoColumn'><p style='float: center; font-size: 20pt; text-align: center;'><img src= 'images/stimuli/nw_room.png' style='width:50%'></p></div><div class='twoColumn'><p style='float: center; font-size: 20pt; text-align: center;'><img src= 'images/stimuli/ww_room.png' style='width:50%'></p></div></div><div class='row'><div class='twoColumn'><p style='float: center; font-size: 20pt; text-align: center;'>1</p></div><div class='twoColumn'><p style='float: center; font-size: 20pt; text-align: center;'>2</p></div>","49","html-keyboard-response","14","191102","0.0-5.0-3.1","roomType","8086","1","","","","","","","","","5","","23","",""
"null","","null","html-keyboard-response","15","191610","0.0-5.0-4.1","blank","","","","","","","","","","","","","","",""
"871","<p>In the video you just watched, on which table did the object appear?</p><p><img src= 'images/stimuli/85.png' style='width: 33%'></p><img src= 'images/stimuli/nw_table.png' style='width:33%'>","49","html-keyboard-response","16","192485","0.0-5.0-5.1","tableNum","8086","2","","","","","","","","","5","","","",""
"null","<div style=""font-size:60px;"">+</div>","null","html-keyboard-response","17","192990","0.0-5.0-0.2","fixation","","","","","","","","","","","","","","",""
"3689","<p>In the video you just watched, which one of the three objects at the bottom of the screen appeared immediately after this object?</p><p><img src= 'images/stimuli/70.png' style='width: 33%'></p><div class='row'><div class='threeColumn'><p style='float: left; font-size: 20pt; text-align: center;'><img src= 'images/stimuli/4.png' style='width:100%'>1</p></div><div class='threeColumn'><p style='float: left; font-size: 20pt; text-align: center;'><img src= 'images/stimuli/36.png' style='width:100%'>2</p></div><div class='threeColumn'><p style='float: left; font-size: 20pt; text-align: center;'><img src= 'images/stimuli/69.png' style='width:100%'>3</p></div></div>","51","html-keyboard-response","18","196689","0.0-5.0-1.2","temporalOrder","8086","3","70","images/stimuli/69.png","images/stimuli/4.png","-7","1","images/stimuli/36.png","24","2","5","In the video you just watched, which one of the three objects at the bottom of the screen appeared immediately after this object?","5","1","within-no-walls"
"null","","null","html-keyboard-response","19","197191","0.0-5.0-2.2","blank","","","","","","","","","","","","","","",""
"1562","<p>In the video you just watched, in which room did this object appear?</p><p><img src= 'images/stimuli/70.png' style='width: 33%'></p><div class='row'><div class='twoColumn'><p style='float: center; font-size: 20pt; text-align: center;'><img src= 'images/stimuli/nw_room.png' style='width:50%'></p></div><div class='twoColumn'><p style='float: center; font-size: 20pt; text-align: center;'><img src= 'images/stimuli/ww_room.png' style='width:50%'></p></div></div><div class='row'><div class='twoColumn'><p style='float: center; font-size: 20pt; text-align: center;'>1</p></div><div class='twoColumn'><p style='float: center; font-size: 20pt; text-align: center;'>2</p></div>","50","html-keyboard-response","20","198758","0.0-5.0-3.2","roomType","8086","1","","","","","","","","","5","","5","",""
"null","","null","html-keyboard-response","21","199261","0.0-5.0-4.2","blank","","","","","","","","","","","","","","",""
"3215","<p>In the video you just watched, on which table did the object appear?</p><p><img src= 'images/stimuli/70.png' style='width: 33%'></p><img src= 'images/stimuli/nw_table.png' style='width:33%'>","50","html-keyboard-response","22","202481","0.0-5.0-5.2","tableNum","8086","2","","","","","","","","","5","","","",""
"null","<div style=""font-size:60px;"">+</div>","null","html-keyboard-response","23","202993","0.0-5.0-0.3","fixation","","","","","","","","","","","","","","",""
"5266","<p>In the video you just watched, which one of the three objects at the bottom of the screen appeared immediately after this object?</p><p><img src= 'images/stimuli/13.png' style='width: 33%'></p><div class='row'><div class='threeColumn'><p style='float: left; font-size: 20pt; text-align: center;'><img src= 'images/stimuli/28.png' style='width:100%'>1</p></div><div class='threeColumn'><p style='float: left; font-size: 20pt; text-align: center;'><img src= 'images/stimuli/19.png' style='width:100%'>2</p></div><div class='threeColumn'><p style='float: left; font-size: 20pt; text-align: center;'><img src= 'images/stimuli/9.png' style='width:100%'>3</p></div></div>","51","html-keyboard-response","24","208265","0.0-5.0-1.3","temporalOrder","8086","2","13","images/stimuli/19.png","images/stimuli/28.png","-34","1","images/stimuli/9.png","3","3","5","In the video you just watched, which one of the three objects at the bottom of the screen appeared immediately after this object?","40","0","across"
"null","","null","html-keyboard-response","25","208773","0.0-5.0-2.3","blank","","","","","","","","","","","","","","",""
"3448","<p>In the video you just watched, in which room did this object appear?</p><p><img src= 'images/stimuli/13.png' style='width: 33%'></p><div class='row'><div class='twoColumn'><p style='float: center; font-size: 20pt; text-align: center;'><img src= 'images/stimuli/nw_room.png' style='width:50%'></p></div><div class='twoColumn'><p style='float: center; font-size: 20pt; text-align: center;'><img src= 'images/stimuli/ww_room.png' style='width:50%'></p></div></div><div class='row'><div class='twoColumn'><p style='float: center; font-size: 20pt; text-align: center;'>1</p></div><div class='twoColumn'><p style='float: center; font-size: 20pt; text-align: center;'>2</p></div>","49","html-keyboard-response","26","212228","0.0-5.0-3.3","roomType","8086","2","","","","","","","","","5","","40","",""
"null","","null","html-keyboard-response","27","212732","0.0-5.0-4.3","blank","","","","","","","","","","","","","","",""
"1783","<p>In the video you just watched, on which table did the object appear?</p><p><img src= 'images/stimuli/13.png' style='width: 33%'></p><img src= 'images/stimuli/nw_table.png' style='width:33%'>","49","html-keyboard-response","28","214519","0.0-5.0-5.3","tableNum","8086","3","","","","","","","","","5","","","",""
"null","<div style=""font-size:60px;"">+</div>","null","html-keyboard-response","29","215021","0.0-5.0-0.4","fixation","","","","","","","","","","","","","","",""
"5577","<p>In the video you just watched, which one of the three objects at the bottom of the screen appeared immediately after this object?</p><p><img src= 'images/stimuli/81.png' style='width: 33%'></p><div class='row'><div class='threeColumn'><p style='float: left; font-size: 20pt; text-align: center;'><img src= 'images/stimuli/71.png' style='width:100%'>1</p></div><div class='threeColumn'><p style='float: left; font-size: 20pt; text-align: center;'><img src= 'images/stimuli/77.png' style='width:100%'>2</p></div><div class='threeColumn'><p style='float: left; font-size: 20pt; text-align: center;'><img src= 'images/stimuli/46.png' style='width:100%'>3</p></div></div>","51","html-keyboard-response","30","220607","0.0-5.0-1.4","temporalOrder","8086","2","81","images/stimuli/77.png","images/stimuli/71.png","-3","1","images/stimuli/46.png","10","3","5","In the video you just watched, which one of the three objects at the bottom of the screen appeared immediately after this object?","6","1","within-walls"
"null","","null","html-keyboard-response","31","221112","0.0-5.0-2.4","blank","","","","","","","","","","","","","","",""
"4685","<p>In the video you just watched, in which room did this object appear?</p><p><img src= 'images/stimuli/81.png' style='width: 33%'></p><div class='row'><div class='twoColumn'><p style='float: center; font-size: 20pt; text-align: center;'><img src= 'images/stimuli/nw_room.png' style='width:50%'></p></div><div class='twoColumn'><p style='float: center; font-size: 20pt; text-align: center;'><img src= 'images/stimuli/ww_room.png' style='width:50%'></p></div></div><div class='row'><div class='twoColumn'><p style='float: center; font-size: 20pt; text-align: center;'>1</p></div><div class='twoColumn'><p style='float: center; font-size: 20pt; text-align: center;'>2</p></div>","49","html-keyboard-response","32","225801","0.0-5.0-3.4","roomType","8086","2","","","","","","","","","5","","6","",""
"null","","null","html-keyboard-response","33","226312","0.0-5.0-4.4","blank","","","","","","","","","","","","","","",""
"796","<p>In the video you just watched, on which table did the object appear?</p><p><img src= 'images/stimuli/81.png' style='width: 33%'></p><img src= 'images/stimuli/nw_table.png' style='width:33%'>","50","html-keyboard-response","34","227111","0.0-5.0-5.4","tableNum","8086","2","","","","","","","","","5","","","",""
"null","<div style=""font-size:60px;"">+</div>","null","html-keyboard-response","35","227622","0.0-5.0-0.5","fixation","","","","","","","","","","","","","","",""
"3727","<p>In the video you just watched, which one of the three objects at the bottom of the screen appeared immediately after this object?</p><p><img src= 'images/stimuli/79.png' style='width: 33%'></p><div class='row'><div class='threeColumn'><p style='float: left; font-size: 20pt; text-align: center;'><img src= 'images/stimuli/70.png' style='width:100%'>1</p></div><div class='threeColumn'><p style='float: left; font-size: 20pt; text-align: center;'><img src= 'images/stimuli/29.png' style='width:100%'>2</p></div><div class='threeColumn'><p style='float: left; font-size: 20pt; text-align: center;'><img src= 'images/stimuli/20.png' style='width:100%'>3</p></div></div>","51","html-keyboard-response","36","231359","0.0-5.0-1.5","temporalOrder","8086","2","79","images/stimuli/29.png","images/stimuli/70.png","-31","1","images/stimuli/20.png","17","3","5","In the video you just watched, which one of the three objects at the bottom of the screen appeared immediately after this object?","20","0","across"
"null","","null","html-keyboard-response","37","231864","0.0-5.0-2.5","blank","","","","","","","","","","","","","","",""
"1603","<p>In the video you just watched, in which room did this object appear?</p><p><img src= 'images/stimuli/79.png' style='width: 33%'></p><div class='row'><div class='twoColumn'><p style='float: center; font-size: 20pt; text-align: center;'><img src= 'images/stimuli/nw_room.png' style='width:50%'></p></div><div class='twoColumn'><p style='float: center; font-size: 20pt; text-align: center;'><img src= 'images/stimuli/ww_room.png' style='width:50%'></p></div></div><div class='row'><div class='twoColumn'><p style='float: center; font-size: 20pt; text-align: center;'>1</p></div><div class='twoColumn'><p style='float: center; font-size: 20pt; text-align: center;'>2</p></div>","50","html-keyboard-response","38","233471","0.0-5.0-3.5","roomType","8086","2","","","","","","","","","5","","20","",""
"null","","null","html-keyboard-response","39","233974","0.0-5.0-4.5","blank","","","","","","","","","","","","","","",""
"3860","<p>In the video you just watched, on which table did the object appear?</p><p><img src= 'images/stimuli/79.png' style='width: 33%'></p><img src= 'images/stimuli/nw_table.png' style='width:33%'>","50","html-keyboard-response","40","237836","0.0-5.0-5.5","tableNum","8086","3","","","","","","","","","5","","","",""
"null","<div style=""font-size:60px;"">+</div>","null","html-keyboard-response","41","238344","0.0-5.0-0.6","fixation","","","","","","","","","","","","","","",""
"3349","<p>In the video you just watched, which one of the three objects at the bottom of the screen appeared immediately after this object?</p><p><img src= 'images/stimuli/7.png' style='width: 33%'></p><div class='row'><div class='threeColumn'><p style='float: left; font-size: 20pt; text-align: center;'><img src= 'images/stimuli/6.png' style='width:100%'>1</p></div><div class='threeColumn'><p style='float: left; font-size: 20pt; text-align: center;'><img src= 'images/stimuli/62.png' style='width:100%'>2</p></div><div class='threeColumn'><p style='float: left; font-size: 20pt; text-align: center;'><img src= 'images/stimuli/9.png' style='width:100%'>3</p></div></div>","50","html-keyboard-response","42","241702","0.0-5.0-1.6","temporalOrder","8086","3","7","images/stimuli/9.png","images/stimuli/62.png","-18","2","images/stimuli/6.png","3","1","5","In the video you just watched, which one of the three objects at the bottom of the screen appeared immediately after this object?","41","0","across"
"null","","null","html-keyboard-response","43","242204","0.0-5.0-2.6","blank","","","","","","","","","","","","","","",""
"738","<p>In the video you just watched, in which room did this object appear?</p><p><img src= 'images/stimuli/7.png' style='width: 33%'></p><div class='row'><div class='twoColumn'><p style='float: center; font-size: 20pt; text-align: center;'><img src= 'images/stimuli/nw_room.png' style='width:50%'></p></div><div class='twoColumn'><p style='float: center; font-size: 20pt; text-align: center;'><img src= 'images/stimuli/ww_room.png' style='width:50%'></p></div></div><div class='row'><div class='twoColumn'><p style='float: center; font-size: 20pt; text-align: center;'>1</p></div><div class='twoColumn'><p style='float: center; font-size: 20pt; text-align: center;'>2</p></div>","49","html-keyboard-response","44","242945","0.0-5.0-3.6","roomType","8086","1","","","","","","","","","5","","41","",""
"null","","null","html-keyboard-response","45","243454","0.0-5.0-4.6","blank","","","","","","","","","","","","","","",""
"1721","<p>In the video you just watched, on which table did the object appear?</p><p><img src= 'images/stimuli/7.png' style='width: 33%'></p><img src= 'images/stimuli/nw_table.png' style='width:33%'>","49","html-keyboard-response","46","245179","0.0-5.0-5.6","tableNum","8086","3","","","","","","","","","5","","","",""
"null","<div style=""font-size:60px;"">+</div>","null","html-keyboard-response","47","245684","0.0-5.0-0.7","fixation","","","","","","","","","","","","","","",""
"5331","<p>In the video you just watched, which one of the three objects at the bottom of the screen appeared immediately after this object?</p><p><img src= 'images/stimuli/54.png' style='width: 33%'></p><div class='row'><div class='threeColumn'><p style='float: left; font-size: 20pt; text-align: center;'><img src= 'images/stimuli/78.png' style='width:100%'>1</p></div><div class='threeColumn'><p style='float: left; font-size: 20pt; text-align: center;'><img src= 'images/stimuli/52.png' style='width:100%'>2</p></div><div class='threeColumn'><p style='float: left; font-size: 20pt; text-align: center;'><img src= 'images/stimuli/14.png' style='width:100%'>3</p></div></div>","50","html-keyboard-response","48","251025","0.0-5.0-1.7","temporalOrder","8086","3","54","images/stimuli/14.png","images/stimuli/52.png","-49","2","images/stimuli/78.png","12","1","5","In the video you just watched, which one of the three objects at the bottom of the screen appeared immediately after this object?","38","0","across"
"null","","null","html-keyboard-response","49","251534","0.0-5.0-2.7","blank","","","","","","","","","","","","","","",""
"1348","<p>In the video you just watched, in which room did this object appear?</p><p><img src= 'images/stimuli/54.png' style='width: 33%'></p><div class='row'><div class='twoColumn'><p style='float: center; font-size: 20pt; text-align: center;'><img src= 'images/stimuli/nw_room.png' style='width:50%'></p></div><div class='twoColumn'><p style='float: center; font-size: 20pt; text-align: center;'><img src= 'images/stimuli/ww_room.png' style='width:50%'></p></div></div><div class='row'><div class='twoColumn'><p style='float: center; font-size: 20pt; text-align: center;'>1</p></div><div class='twoColumn'><p style='float: center; font-size: 20pt; text-align: center;'>2</p></div>","50","html-keyboard-response","50","252883","0.0-5.0-3.7","roomType","8086","2","","","","","","","","","5","","38","",""
"null","","null","html-keyboard-response","51","253394","0.0-5.0-4.7","blank","","","","","","","","","","","","","","",""
"1082","<p>In the video you just watched, on which table did the object appear?</p><p><img src= 'images/stimuli/54.png' style='width: 33%'></p><img src= 'images/stimuli/nw_table.png' style='width:33%'>","50","html-keyboard-response","52","254477","0.0-5.0-5.7","tableNum","8086","3","","","","","","","","","5","","","",""
"null","<div style=""font-size:60px;"">+</div>","null","html-keyboard-response","53","254984","0.0-5.0-0.8","fixation","","","","","","","","","","","","","","",""
"5780","<p>In the video you just watched, which one of the three objects at the bottom of the screen appeared immediately after this object?</p><p><img src= 'images/stimuli/28.png' style='width: 33%'></p><div class='row'><div class='threeColumn'><p style='float: left; font-size: 20pt; text-align: center;'><img src= 'images/stimuli/42.png' style='width:100%'>1</p></div><div class='threeColumn'><p style='float: left; font-size: 20pt; text-align: center;'><img src= 'images/stimuli/0.png' style='width:100%'>2</p></div><div class='threeColumn'><p style='float: left; font-size: 20pt; text-align: center;'><img src= 'images/stimuli/33.png' style='width:100%'>3</p></div></div>","51","html-keyboard-response","54","260772","0.0-5.0-1.8","temporalOrder","8086","3","28","images/stimuli/33.png","images/stimuli/0.png","-28","2","images/stimuli/42.png","41","1","5","In the video you just watched, which one of the three objects at the bottom of the screen appeared immediately after this object?","23","0","across"
"null","","null","html-keyboard-response","55","261273","0.0-5.0-2.8","blank","","","","","","","","","","","","","","",""
"1667","<p>In the video you just watched, in which room did this object appear?</p><p><img src= 'images/stimuli/28.png' style='width: 33%'></p><div class='row'><div class='twoColumn'><p style='float: center; font-size: 20pt; text-align: center;'><img src= 'images/stimuli/nw_room.png' style='width:50%'></p></div><div class='twoColumn'><p style='float: center; font-size: 20pt; text-align: center;'><img src= 'images/stimuli/ww_room.png' style='width:50%'></p></div></div><div class='row'><div class='twoColumn'><p style='float: center; font-size: 20pt; text-align: center;'>1</p></div><div class='twoColumn'><p style='float: center; font-size: 20pt; text-align: center;'>2</p></div>","50","html-keyboard-response","56","262943","0.0-5.0-3.8","roomType","8086","1","","","","","","","","","5","","23","",""
"null","","null","html-keyboard-response","57","263453","0.0-5.0-4.8","blank","","","","","","","","","","","","","","",""
"2697","<p>In the video you just watched, on which table did the object appear?</p><p><img src= 'images/stimuli/28.png' style='width: 33%'></p><img src= 'images/stimuli/nw_table.png' style='width:33%'>","50","html-keyboard-response","58","266153","0.0-5.0-5.8","tableNum","8086","3","","","","","","","","","5","","","",""
"null","<div style=""font-size:60px;"">+</div>","null","html-keyboard-response","59","266663","0.0-5.0-0.9","fixation","","","","","","","","","","","","","","",""
"4303","<p>In the video you just watched, which one of the three objects at the bottom of the screen appeared immediately after this object?</p><p><img src= 'images/stimuli/31.png' style='width: 33%'></p><div class='row'><div class='threeColumn'><p style='float: left; font-size: 20pt; text-align: center;'><img src= 'images/stimuli/74.png' style='width:100%'>1</p></div><div class='threeColumn'><p style='float: left; font-size: 20pt; text-align: center;'><img src= 'images/stimuli/67.png' style='width:100%'>2</p></div><div class='threeColumn'><p style='float: left; font-size: 20pt; text-align: center;'><img src= 'images/stimuli/1.png' style='width:100%'>3</p></div></div>","51","html-keyboard-response","60","270974","0.0-5.0-1.9","temporalOrder","8086","3","31","images/stimuli/1.png","images/stimuli/74.png","-46","1","images/stimuli/67.png","15","2","5","In the video you just watched, which one of the three objects at the bottom of the screen appeared immediately after this object?","26","0","across"
"null","","null","html-keyboard-response","61","271486","0.0-5.0-2.9","blank","","","","","","","","","","","","","","",""
"1515","<p>In the video you just watched, in which room did this object appear?</p><p><img src= 'images/stimuli/31.png' style='width: 33%'></p><div class='row'><div class='twoColumn'><p style='float: center; font-size: 20pt; text-align: center;'><img src= 'images/stimuli/nw_room.png' style='width:50%'></p></div><div class='twoColumn'><p style='float: center; font-size: 20pt; text-align: center;'><img src= 'images/stimuli/ww_room.png' style='width:50%'></p></div></div><div class='row'><div class='twoColumn'><p style='float: center; font-size: 20pt; text-align: center;'>1</p></div><div class='twoColumn'><p style='float: center; font-size: 20pt; text-align: center;'>2</p></div>","49","html-keyboard-response","62","273008","0.0-5.0-3.9","roomType","8086","2","","","","","","","","","5","","26","",""
"null","","null","html-keyboard-response","63","273515","0.0-5.0-4.9","blank","","","","","","","","","","","","","","",""
"1113","<p>In the video you just watched, on which table did the object appear?</p><p><img src= 'images/stimuli/31.png' style='width: 33%'></p><img src= 'images/stimuli/nw_table.png' style='width:33%'>","49","html-keyboard-response","64","274634","0.0-5.0-5.9","tableNum","8086","3","","","","","","","","","5","","","",""
"null","<div style=""font-size:60px;"">+</div>","null","html-keyboard-response","65","275145","0.0-5.0-0.10","fixation","","","","","","","","","","","","","","",""
"2505","<p>In the video you just watched, which one of the three objects at the bottom of the screen appeared immediately after this object?</p><p><img src= 'images/stimuli/67.png' style='width: 33%'></p><div class='row'><div class='threeColumn'><p style='float: left; font-size: 20pt; text-align: center;'><img src= 'images/stimuli/3.png' style='width:100%'>1</p></div><div class='threeColumn'><p style='float: left; font-size: 20pt; text-align: center;'><img src= 'images/stimuli/42.png' style='width:100%'>2</p></div><div class='threeColumn'><p style='float: left; font-size: 20pt; text-align: center;'><img src= 'images/stimuli/74.png' style='width:100%'>3</p></div></div>","49","html-keyboard-response","66","277658","0.0-5.0-1.10","temporalOrder","8086","1","67","images/stimuli/3.png","images/stimuli/74.png","-61","3","images/stimuli/42.png","20","2","5","In the video you just watched, which one of the three objects at the bottom of the screen appeared immediately after this object?","34","1","within-walls"
"null","","null","html-keyboard-response","67","278166","0.0-5.0-2.10","blank","","","","","","","","","","","","","","",""
"1364","<p>In the video you just watched, in which room did this object appear?</p><p><img src= 'images/stimuli/67.png' style='width: 33%'></p><div class='row'><div class='twoColumn'><p style='float: center; font-size: 20pt; text-align: center;'><img src= 'images/stimuli/nw_room.png' style='width:50%'></p></div><div class='twoColumn'><p style='float: center; font-size: 20pt; text-align: center;'><img src= 'images/stimuli/ww_room.png' style='width:50%'></p></div></div><div class='row'><div class='twoColumn'><p style='float: center; font-size: 20pt; text-align: center;'>1</p></div><div class='twoColumn'><p style='float: center; font-size: 20pt; text-align: center;'>2</p></div>","50","html-keyboard-response","68","279532","0.0-5.0-3.10","roomType","8086","2","","","","","","","","","5","","34","",""
"null","","null","html-keyboard-response","69","280035","0.0-5.0-4.10","blank","","","","","","","","","","","","","","",""
"710","<p>In the video you just watched, on which table did the object appear?</p><p><img src= 'images/stimuli/67.png' style='width: 33%'></p><img src= 'images/stimuli/nw_table.png' style='width:33%'>","50","html-keyboard-response","70","280750","0.0-5.0-5.10","tableNum","8086","2","","","","","","","","","5","","","",""
"null","<div style=""font-size:60px;"">+</div>","null","html-keyboard-response","71","281255","0.0-5.0-0.11","fixation","","","","","","","","","","","","","","",""
"5158","<p>In the video you just watched, which one of the three objects at the bottom of the screen appeared immediately after this object?</p><p><img src= 'images/stimuli/75.png' style='width: 33%'></p><div class='row'><div class='threeColumn'><p style='float: left; font-size: 20pt; text-align: center;'><img src= 'images/stimuli/54.png' style='width:100%'>1</p></div><div class='threeColumn'><p style='float: left; font-size: 20pt; text-align: center;'><img src= 'images/stimuli/59.png' style='width:100%'>2</p></div><div class='threeColumn'><p style='float: left; font-size: 20pt; text-align: center;'><img src= 'images/stimuli/78.png' style='width:100%'>3</p></div></div>","49","html-keyboard-response","72","286422","0.0-5.0-1.11","temporalOrder","8086","1","75","images/stimuli/54.png","images/stimuli/59.png","-21","2","images/stimuli/78.png","13","3","5","In the video you just watched, which one of the three objects at the bottom of the screen appeared immediately after this object?","38","1","within-walls"
"null","","null","html-keyboard-response","73","286925","0.0-5.0-2.11","blank","","","","","","","","","","","","","","",""
"1162","<p>In the video you just watched, in which room did this object appear?</p><p><img src= 'images/stimuli/75.png' style='width: 33%'></p><div class='row'><div class='twoColumn'><p style='float: center; font-size: 20pt; text-align: center;'><img src= 'images/stimuli/nw_room.png' style='width:50%'></p></div><div class='twoColumn'><p style='float: center; font-size: 20pt; text-align: center;'><img src= 'images/stimuli/ww_room.png' style='width:50%'></p></div></div><div class='row'><div class='twoColumn'><p style='float: center; font-size: 20pt; text-align: center;'>1</p></div><div class='twoColumn'><p style='float: center; font-size: 20pt; text-align: center;'>2</p></div>","49","html-keyboard-response","74","288090","0.0-5.0-3.11","roomType","8086","2","","","","","","","","","5","","38","",""
"null","","null","html-keyboard-response","75","288595","0.0-5.0-4.11","blank","","","","","","","","","","","","","","",""
"488","<p>In the video you just watched, on which table did the object appear?</p><p><img src= 'images/stimuli/75.png' style='width: 33%'></p><img src= 'images/stimuli/nw_table.png' style='width:33%'>","49","html-keyboard-response","76","289086","0.0-5.0-5.11","tableNum","8086","2","","","","","","","","","5","","","",""
"null","<div style=""font-size:60px;"">+</div>","null","html-keyboard-response","77","289595","0.0-5.0-0.12","fixation","","","","","","","","","","","","","","",""
"8976","<p>In the video you just watched, which one of the three objects at the bottom of the screen appeared immediately after this object?</p><p><img src= 'images/stimuli/68.png' style='width: 33%'></p><div class='row'><div class='threeColumn'><p style='float: left; font-size: 20pt; text-align: center;'><img src= 'images/stimuli/13.png' style='width:100%'>1</p></div><div class='threeColumn'><p style='float: left; font-size: 20pt; text-align: center;'><img src= 'images/stimuli/42.png' style='width:100%'>2</p></div><div class='threeColumn'><p style='float: left; font-size: 20pt; text-align: center;'><img src= 'images/stimuli/40.png' style='width:100%'>3</p></div></div>","49","html-keyboard-response","78","298580","0.0-5.0-1.12","temporalOrder","8086","1","68","images/stimuli/13.png","images/stimuli/40.png","-20","3","images/stimuli/42.png","8","2","5","In the video you just watched, which one of the three objects at the bottom of the screen appeared immediately after this object?","40","1","within-walls"
"null","","null","html-keyboard-response","79","299084","0.0-5.0-2.12","blank","","","","","","","","","","","","","","",""
"1152","<p>In the video you just watched, in which room did this object appear?</p><p><img src= 'images/stimuli/68.png' style='width: 33%'></p><div class='row'><div class='twoColumn'><p style='float: center; font-size: 20pt; text-align: center;'><img src= 'images/stimuli/nw_room.png' style='width:50%'></p></div><div class='twoColumn'><p style='float: center; font-size: 20pt; text-align: center;'><img src= 'images/stimuli/ww_room.png' style='width:50%'></p></div></div><div class='row'><div class='twoColumn'><p style='float: center; font-size: 20pt; text-align: center;'>1</p></div><div class='twoColumn'><p style='float: center; font-size: 20pt; text-align: center;'>2</p></div>","50","html-keyboard-response","80","300240","0.0-5.0-3.12","roomType","8086","2","","","","","","","","","5","","40","",""
"null","","null","html-keyboard-response","81","300744","0.0-5.0-4.12","blank","","","","","","","","","","","","","","",""
"3684","<p>In the video you just watched, on which table did the object appear?</p><p><img src= 'images/stimuli/68.png' style='width: 33%'></p><img src= 'images/stimuli/nw_table.png' style='width:33%'>","49","html-keyboard-response","82","304431","0.0-5.0-5.12","tableNum","8086","2","","","","","","","","","5","","","",""
"null","<div style=""font-size:60px;"">+</div>","null","html-keyboard-response","83","304934","0.0-5.0-0.13","fixation","","","","","","","","","","","","","","",""
"2938","<p>In the video you just watched, which one of the three objects at the bottom of the screen appeared immediately after this object?</p><p><img src= 'images/stimuli/87.png' style='width: 33%'></p><div class='row'><div class='threeColumn'><p style='float: left; font-size: 20pt; text-align: center;'><img src= 'images/stimuli/85.png' style='width:100%'>1</p></div><div class='threeColumn'><p style='float: left; font-size: 20pt; text-align: center;'><img src= 'images/stimuli/35.png' style='width:100%'>2</p></div><div class='threeColumn'><p style='float: left; font-size: 20pt; text-align: center;'><img src= 'images/stimuli/68.png' style='width:100%'>3</p></div></div>","50","html-keyboard-response","84","307878","0.0-5.0-1.13","temporalOrder","8086","1","87","images/stimuli/85.png","images/stimuli/35.png","-39","2","images/stimuli/68.png","35","3","5","In the video you just watched, which one of the three objects at the bottom of the screen appeared immediately after this object?","22","0","across"
"null","","null","html-keyboard-response","85","308384","0.0-5.0-2.13","blank","","","","","","","","","","","","","","",""
"1437","<p>In the video you just watched, in which room did this object appear?</p><p><img src= 'images/stimuli/87.png' style='width: 33%'></p><div class='row'><div class='twoColumn'><p style='float: center; font-size: 20pt; text-align: center;'><img src= 'images/stimuli/nw_room.png' style='width:50%'></p></div><div class='twoColumn'><p style='float: center; font-size: 20pt; text-align: center;'><img src= 'images/stimuli/ww_room.png' style='width:50%'></p></div></div><div class='row'><div class='twoColumn'><p style='float: center; font-size: 20pt; text-align: center;'>1</p></div><div class='twoColumn'><p style='float: center; font-size: 20pt; text-align: center;'>2</p></div>","50","html-keyboard-response","86","309823","0.0-5.0-3.13","roomType","8086","2","","","","","","","","","5","","22","",""
"null","","null","html-keyboard-response","87","310334","0.0-5.0-4.13","blank","","","","","","","","","","","","","","",""
"3656","<p>In the video you just watched, on which table did the object appear?</p><p><img src= 'images/stimuli/87.png' style='width: 33%'></p><img src= 'images/stimuli/nw_table.png' style='width:33%'>","49","html-keyboard-response","88","313992","0.0-5.0-5.13","tableNum","8086","3","","","","","","","","","5","","","",""
"null","<div style=""font-size:60px;"">+</div>","null","html-keyboard-response","89","314494","0.0-5.0-0.14","fixation","","","","","","","","","","","","","","",""
"4260","<p>In the video you just watched, which one of the three objects at the bottom of the screen appeared immediately after this object?</p><p><img src= 'images/stimuli/64.png' style='width: 33%'></p><div class='row'><div class='threeColumn'><p style='float: left; font-size: 20pt; text-align: center;'><img src= 'images/stimuli/81.png' style='width:100%'>1</p></div><div class='threeColumn'><p style='float: left; font-size: 20pt; text-align: center;'><img src= 'images/stimuli/85.png' style='width:100%'>2</p></div><div class='threeColumn'><p style='float: left; font-size: 20pt; text-align: center;'><img src= 'images/stimuli/53.png' style='width:100%'>3</p></div></div>","49","html-keyboard-response","90","318761","0.0-5.0-1.14","temporalOrder","8086","3","64","images/stimuli/53.png","images/stimuli/81.png","-14","1","images/stimuli/85.png","20","2","5","In the video you just watched, which one of the three objects at the bottom of the screen appeared immediately after this object?","13","1","within-no-walls"
"null","","null","html-keyboard-response","91","319264","0.0-5.0-2.14","blank","","","","","","","","","","","","","","",""
"1385","<p>In the video you just watched, in which room did this object appear?</p><p><img src= 'images/stimuli/64.png' style='width: 33%'></p><div class='row'><div class='twoColumn'><p style='float: center; font-size: 20pt; text-align: center;'><img src= 'images/stimuli/nw_room.png' style='width:50%'></p></div><div class='twoColumn'><p style='float: center; font-size: 20pt; text-align: center;'><img src= 'images/stimuli/ww_room.png' style='width:50%'></p></div></div><div class='row'><div class='twoColumn'><p style='float: center; font-size: 20pt; text-align: center;'>1</p></div><div class='twoColumn'><p style='float: center; font-size: 20pt; text-align: center;'>2</p></div>","49","html-keyboard-response","92","320651","0.0-5.0-3.14","roomType","8086","1","","","","","","","","","5","","13","",""
"null","","null","html-keyboard-response","93","321154","0.0-5.0-4.14","blank","","","","","","","","","","","","","","",""
"1160","<p>In the video you just watched, on which table did the object appear?</p><p><img src= 'images/stimuli/64.png' style='width: 33%'></p><img src= 'images/stimuli/nw_table.png' style='width:33%'>","50","html-keyboard-response","94","322318","0.0-5.0-5.14","tableNum","8086","2","","","","","","","","","5","","","",""
"null","<div style=""font-size:60px;"">+</div>","null","html-keyboard-response","95","322824","0.0-5.0-0.15","fixation","","","","","","","","","","","","","","",""
"4616","<p>In the video you just watched, which one of the three objects at the bottom of the screen appeared immediately after this object?</p><p><img src= 'images/stimuli/18.png' style='width: 33%'></p><div class='row'><div class='threeColumn'><p style='float: left; font-size: 20pt; text-align: center;'><img src= 'images/stimuli/69.png' style='width:100%'>1</p></div><div class='threeColumn'><p style='float: left; font-size: 20pt; text-align: center;'><img src= 'images/stimuli/60.png' style='width:100%'>2</p></div><div class='threeColumn'><p style='float: left; font-size: 20pt; text-align: center;'><img src= 'images/stimuli/34.png' style='width:100%'>3</p></div></div>","51","html-keyboard-response","96","327449","0.0-5.0-1.15","temporalOrder","8086","2","18","images/stimuli/60.png","images/stimuli/69.png","-50","1","images/stimuli/34.png","9","3","5","In the video you just watched, which one of the three objects at the bottom of the screen appeared immediately after this object?","30","0","across"
"null","","null","html-keyboard-response","97","327955","0.0-5.0-2.15","blank","","","","","","","","","","","","","","",""
"2310","<p>In the video you just watched, in which room did this object appear?</p><p><img src= 'images/stimuli/18.png' style='width: 33%'></p><div class='row'><div class='twoColumn'><p style='float: center; font-size: 20pt; text-align: center;'><img src= 'images/stimuli/nw_room.png' style='width:50%'></p></div><div class='twoColumn'><p style='float: center; font-size: 20pt; text-align: center;'><img src= 'images/stimuli/ww_room.png' style='width:50%'></p></div></div><div class='row'><div class='twoColumn'><p style='float: center; font-size: 20pt; text-align: center;'>1</p></div><div class='twoColumn'><p style='float: center; font-size: 20pt; text-align: center;'>2</p></div>","49","html-keyboard-response","98","330268","0.0-5.0-3.15","roomType","8086","2","","","","","","","","","5","","30","",""
"null","","null","html-keyboard-response","99","330776","0.0-5.0-4.15","blank","","","","","","","","","","","","","","",""
"594","<p>In the video you just watched, on which table did the object appear?</p><p><img src= 'images/stimuli/18.png' style='width: 33%'></p><img src= 'images/stimuli/nw_table.png' style='width:33%'>","49","html-keyboard-response","100","331372","0.0-5.0-5.15","tableNum","8086","3","","","","","","","","","5","","","",""
"null","<div style=""font-size:60px;"">+</div>","null","html-keyboard-response","101","331876","0.0-5.0-0.16","fixation","","","","","","","","","","","","","","",""
"5782","<p>In the video you just watched, which one of the three objects at the bottom of the screen appeared immediately after this object?</p><p><img src= 'images/stimuli/32.png' style='width: 33%'></p><div class='row'><div class='threeColumn'><p style='float: left; font-size: 20pt; text-align: center;'><img src= 'images/stimuli/43.png' style='width:100%'>1</p></div><div class='threeColumn'><p style='float: left; font-size: 20pt; text-align: center;'><img src= 'images/stimuli/59.png' style='width:100%'>2</p></div><div class='threeColumn'><p style='float: left; font-size: 20pt; text-align: center;'><img src= 'images/stimuli/69.png' style='width:100%'>3</p></div></div>","51","html-keyboard-response","102","337663","0.0-5.0-1.16","temporalOrder","8086","1","32","images/stimuli/43.png","images/stimuli/69.png","-12","3","images/stimuli/59.png","32","2","5","In the video you just watched, which one of the three objects at the bottom of the screen appeared immediately after this object?","11","0","across"
"null","","null","html-keyboard-response","103","338165","0.0-5.0-2.16","blank","","","","","","","","","","","","","","",""
"6867","<p>In the video you just watched, in which room did this object appear?</p><p><img src= 'images/stimuli/32.png' style='width: 33%'></p><div class='row'><div class='twoColumn'><p style='float: center; font-size: 20pt; text-align: center;'><img src= 'images/stimuli/nw_room.png' style='width:50%'></p></div><div class='twoColumn'><p style='float: center; font-size: 20pt; text-align: center;'><img src= 'images/stimuli/ww_room.png' style='width:50%'></p></div></div><div class='row'><div class='twoColumn'><p style='float: center; font-size: 20pt; text-align: center;'>1</p></div><div class='twoColumn'><p style='float: center; font-size: 20pt; text-align: center;'>2</p></div>","50","html-keyboard-response","104","345036","0.0-5.0-3.16","roomType","8086","1","","","","","","","","","5","","11","",""
"null","","null","html-keyboard-response","105","345546","0.0-5.0-4.16","blank","","","","","","","","","","","","","","",""
"1858","<p>In the video you just watched, on which table did the object appear?</p><p><img src= 'images/stimuli/32.png' style='width: 33%'></p><img src= 'images/stimuli/nw_table.png' style='width:33%'>","50","html-keyboard-response","106","347406","0.0-5.0-5.16","tableNum","8086","3","","","","","","","","","5","","","",""
"null","<div style=""font-size:60px;"">+</div>","null","html-keyboard-response","107","347916","0.0-5.0-0.17","fixation","","","","","","","","","","","","","","",""
"7556","<p>In the video you just watched, which one of the three objects at the bottom of the screen appeared immediately after this object?</p><p><img src= 'images/stimuli/43.png' style='width: 33%'></p><div class='row'><div class='threeColumn'><p style='float: left; font-size: 20pt; text-align: center;'><img src= 'images/stimuli/83.png' style='width:100%'>1</p></div><div class='threeColumn'><p style='float: left; font-size: 20pt; text-align: center;'><img src= 'images/stimuli/11.png' style='width:100%'>2</p></div><div class='threeColumn'><p style='float: left; font-size: 20pt; text-align: center;'><img src= 'images/stimuli/44.png' style='width:100%'>3</p></div></div>","49","html-keyboard-response","108","355480","0.0-5.0-1.17","temporalOrder","8086","1","43","images/stimuli/83.png","images/stimuli/44.png","-16","3","images/stimuli/11.png","61","2","5","In the video you just watched, which one of the three objects at the bottom of the screen appeared immediately after this object?","12","1","within-walls"
"null","","null","html-keyboard-response","109","355987","0.0-5.0-2.17","blank","","","","","","","","","","","","","","",""
"1250","<p>In the video you just watched, in which room did this object appear?</p><p><img src= 'images/stimuli/43.png' style='width: 33%'></p><div class='row'><div class='twoColumn'><p style='float: center; font-size: 20pt; text-align: center;'><img src= 'images/stimuli/nw_room.png' style='width:50%'></p></div><div class='twoColumn'><p style='float: center; font-size: 20pt; text-align: center;'><img src= 'images/stimuli/ww_room.png' style='width:50%'></p></div></div><div class='row'><div class='twoColumn'><p style='float: center; font-size: 20pt; text-align: center;'>1</p></div><div class='twoColumn'><p style='float: center; font-size: 20pt; text-align: center;'>2</p></div>","50","html-keyboard-response","110","357240","0.0-5.0-3.17","roomType","8086","2","","","","","","","","","5","","12","",""
"null","","null","html-keyboard-response","111","357747","0.0-5.0-4.17","blank","","","","","","","","","","","","","","",""
"2436","<p>In the video you just watched, on which table did the object appear?</p><p><img src= 'images/stimuli/43.png' style='width: 33%'></p><img src= 'images/stimuli/nw_table.png' style='width:33%'>","50","html-keyboard-response","112","360184","0.0-5.0-5.17","tableNum","8086","2","","","","","","","","","5","","","",""
"null","<div style=""font-size:60px;"">+</div>","null","html-keyboard-response","113","360687","0.0-5.0-0.18","fixation","","","","","","","","","","","","","","",""
"4600","<p>In the video you just watched, which one of the three objects at the bottom of the screen appeared immediately after this object?</p><p><img src= 'images/stimuli/23.png' style='width: 33%'></p><div class='row'><div class='threeColumn'><p style='float: left; font-size: 20pt; text-align: center;'><img src= 'images/stimuli/27.png' style='width:100%'>1</p></div><div class='threeColumn'><p style='float: left; font-size: 20pt; text-align: center;'><img src= 'images/stimuli/6.png' style='width:100%'>2</p></div><div class='threeColumn'><p style='float: left; font-size: 20pt; text-align: center;'><img src= 'images/stimuli/57.png' style='width:100%'>3</p></div></div>","49","html-keyboard-response","114","365327","0.0-5.0-1.18","temporalOrder","8086","3","23","images/stimuli/57.png","images/stimuli/27.png","-56","1","images/stimuli/6.png","14","2","5","In the video you just watched, which one of the three objects at the bottom of the screen appeared immediately after this object?","36","1","within-walls"
"null","","null","html-keyboard-response","115","365828","0.0-5.0-2.18","blank","","","","","","","","","","","","","","",""
"2517","<p>In the video you just watched, in which room did this object appear?</p><p><img src= 'images/stimuli/23.png' style='width: 33%'></p><div class='row'><div class='twoColumn'><p style='float: center; font-size: 20pt; text-align: center;'><img src= 'images/stimuli/nw_room.png' style='width:50%'></p></div><div class='twoColumn'><p style='float: center; font-size: 20pt; text-align: center;'><img src= 'images/stimuli/ww_room.png' style='width:50%'></p></div></div><div class='row'><div class='twoColumn'><p style='float: center; font-size: 20pt; text-align: center;'>1</p></div><div class='twoColumn'><p style='float: center; font-size: 20pt; text-align: center;'>2</p></div>","50","html-keyboard-response","116","368348","0.0-5.0-3.18","roomType","8086","2","","","","","","","","","5","","36","",""
"null","","null","html-keyboard-response","117","368858","0.0-5.0-4.18","blank","","","","","","","","","","","","","","",""
"653","<p>In the video you just watched, on which table did the object appear?</p><p><img src= 'images/stimuli/23.png' style='width: 33%'></p><img src= 'images/stimuli/nw_table.png' style='width:33%'>","50","html-keyboard-response","118","369512","0.0-5.0-5.18","tableNum","8086","2","","","","","","","","","5","","","",""
"null","<div style=""font-size:60px;"">+</div>","null","html-keyboard-response","119","370018","0.0-5.0-0.19","fixation","","","","","","","","","","","","","","",""
"4989","<p>In the video you just watched, which one of the three objects at the bottom of the screen appeared immediately after this object?</p><p><img src= 'images/stimuli/8.png' style='width: 33%'></p><div class='row'><div class='threeColumn'><p style='float: left; font-size: 20pt; text-align: center;'><img src= 'images/stimuli/61.png' style='width:100%'>1</p></div><div class='threeColumn'><p style='float: left; font-size: 20pt; text-align: center;'><img src= 'images/stimuli/64.png' style='width:100%'>2</p></div><div class='threeColumn'><p style='float: left; font-size: 20pt; text-align: center;'><img src= 'images/stimuli/71.png' style='width:100%'>3</p></div></div>","49","html-keyboard-response","120","375013","0.0-5.0-1.19","temporalOrder","8086","1","8","images/stimuli/61.png","images/stimuli/71.png","-11","3","images/stimuli/64.png","6","2","5","In the video you just watched, which one of the three objects at the bottom of the screen appeared immediately after this object?","10","1","within-walls"
"null","","null","html-keyboard-response","121","375517","0.0-5.0-2.19","blank","","","","","","","","","","","","","","",""
"3413","<p>In the video you just watched, in which room did this object appear?</p><p><img src= 'images/stimuli/8.png' style='width: 33%'></p><div class='row'><div class='twoColumn'><p style='float: center; font-size: 20pt; text-align: center;'><img src= 'images/stimuli/nw_room.png' style='width:50%'></p></div><div class='twoColumn'><p style='float: center; font-size: 20pt; text-align: center;'><img src= 'images/stimuli/ww_room.png' style='width:50%'></p></div></div><div class='row'><div class='twoColumn'><p style='float: center; font-size: 20pt; text-align: center;'>1</p></div><div class='twoColumn'><p style='float: center; font-size: 20pt; text-align: center;'>2</p></div>","49","html-keyboard-response","122","378934","0.0-5.0-3.19","roomType","8086","2","","","","","","","","","5","","10","",""
"null","","null","html-keyboard-response","123","379438","0.0-5.0-4.19","blank","","","","","","","","","","","","","","",""
"667","<p>In the video you just watched, on which table did the object appear?</p><p><img src= 'images/stimuli/8.png' style='width: 33%'></p><img src= 'images/stimuli/nw_table.png' style='width:33%'>","49","html-keyboard-response","124","380109","0.0-5.0-5.19","tableNum","8086","2","","","","","","","","","5","","","",""
"null","<div style=""font-size:60px;"">+</div>","null","html-keyboard-response","125","380617","0.0-5.0-0.20","fixation","","","","","","","","","","","","","","",""
"8359","<p>In the video you just watched, which one of the three objects at the bottom of the screen appeared immediately after this object?</p><p><img src= 'images/stimuli/41.png' style='width: 33%'></p><div class='row'><div class='threeColumn'><p style='float: left; font-size: 20pt; text-align: center;'><img src= 'images/stimuli/81.png' style='width:100%'>1</p></div><div class='threeColumn'><p style='float: left; font-size: 20pt; text-align: center;'><img src= 'images/stimuli/25.png' style='width:100%'>2</p></div><div class='threeColumn'><p style='float: left; font-size: 20pt; text-align: center;'><img src= 'images/stimuli/68.png' style='width:100%'>3</p></div></div>","50","html-keyboard-response","126","388983","0.0-5.0-1.20","temporalOrder","8086","2","41","images/stimuli/25.png","images/stimuli/81.png","-51","1","images/stimuli/68.png","17","3","5","In the video you just watched, which one of the three objects at the bottom of the screen appeared immediately after this object?","31","0","across"
"null","","null","html-keyboard-response","127","389487","0.0-5.0-2.20","blank","","","","","","","","","","","","","","",""
"719","<p>In the video you just watched, in which room did this object appear?</p><p><img src= 'images/stimuli/41.png' style='width: 33%'></p><div class='row'><div class='twoColumn'><p style='float: center; font-size: 20pt; text-align: center;'><img src= 'images/stimuli/nw_room.png' style='width:50%'></p></div><div class='twoColumn'><p style='float: center; font-size: 20pt; text-align: center;'><img src= 'images/stimuli/ww_room.png' style='width:50%'></p></div></div><div class='row'><div class='twoColumn'><p style='float: center; font-size: 20pt; text-align: center;'>1</p></div><div class='twoColumn'><p style='float: center; font-size: 20pt; text-align: center;'>2</p></div>","50","html-keyboard-response","128","390212","0.0-5.0-3.20","roomType","8086","1","","","","","","","","","5","","31","",""
"null","","null","html-keyboard-response","129","390717","0.0-5.0-4.20","blank","","","","","","","","","","","","","","",""
"768","<p>In the video you just watched, on which table did the object appear?</p><p><img src= 'images/stimuli/41.png' style='width: 33%'></p><img src= 'images/stimuli/nw_table.png' style='width:33%'>","49","html-keyboard-response","130","391488","0.0-5.0-5.20","tableNum","8086","3","","","","","","","","","5","","","",""
"null","<div style=""font-size:60px;"">+</div>","null","html-keyboard-response","131","391998","0.0-5.0-0.21","fixation","","","","","","","","","","","","","","",""
"3881","<p>In the video you just watched, which one of the three objects at the bottom of the screen appeared immediately after this object?</p><p><img src= 'images/stimuli/80.png' style='width: 33%'></p><div class='row'><div class='threeColumn'><p style='float: left; font-size: 20pt; text-align: center;'><img src= 'images/stimuli/64.png' style='width:100%'>1</p></div><div class='threeColumn'><p style='float: left; font-size: 20pt; text-align: center;'><img src= 'images/stimuli/20.png' style='width:100%'>2</p></div><div class='threeColumn'><p style='float: left; font-size: 20pt; text-align: center;'><img src= 'images/stimuli/26.png' style='width:100%'>3</p></div></div>","51","html-keyboard-response","132","395886","0.0-5.0-1.21","temporalOrder","8086","3","80","images/stimuli/26.png","images/stimuli/64.png","-17","1","images/stimuli/20.png","15","2","5","In the video you just watched, which one of the three objects at the bottom of the screen appeared immediately after this object?","21","0","across"
"null","","null","html-keyboard-response","133","396389","0.0-5.0-2.21","blank","","","","","","","","","","","","","","",""
"5064","<p>In the video you just watched, in which room did this object appear?</p><p><img src= 'images/stimuli/80.png' style='width: 33%'></p><div class='row'><div class='twoColumn'><p style='float: center; font-size: 20pt; text-align: center;'><img src= 'images/stimuli/nw_room.png' style='width:50%'></p></div><div class='twoColumn'><p style='float: center; font-size: 20pt; text-align: center;'><img src= 'images/stimuli/ww_room.png' style='width:50%'></p></div></div><div class='row'><div class='twoColumn'><p style='float: center; font-size: 20pt; text-align: center;'>1</p></div><div class='twoColumn'><p style='float: center; font-size: 20pt; text-align: center;'>2</p></div>","50","html-keyboard-response","134","401456","0.0-5.0-3.21","roomType","8086","1","","","","","","","","","5","","21","",""
"null","","null","html-keyboard-response","135","401959","0.0-5.0-4.21","blank","","","","","","","","","","","","","","",""
"3274","<p>In the video you just watched, on which table did the object appear?</p><p><img src= 'images/stimuli/80.png' style='width: 33%'></p><img src= 'images/stimuli/nw_table.png' style='width:33%'>","49","html-keyboard-response","136","405236","0.0-5.0-5.21","tableNum","8086","3","","","","","","","","","5","","","",""
"null","<div style=""font-size:60px;"">+</div>","null","html-keyboard-response","137","405739","0.0-5.0-0.22","fixation","","","","","","","","","","","","","","",""
"11114","<p>In the video you just watched, which one of the three objects at the bottom of the screen appeared immediately after this object?</p><p><img src= 'images/stimuli/20.png' style='width: 33%'></p><div class='row'><div class='threeColumn'><p style='float: left; font-size: 20pt; text-align: center;'><img src= 'images/stimuli/14.png' style='width:100%'>1</p></div><div class='threeColumn'><p style='float: left; font-size: 20pt; text-align: center;'><img src= 'images/stimuli/79.png' style='width:100%'>2</p></div><div class='threeColumn'><p style='float: left; font-size: 20pt; text-align: center;'><img src= 'images/stimuli/10.png' style='width:100%'>3</p></div></div>","49","html-keyboard-response","138","416861","0.0-5.0-1.22","temporalOrder","8086","3","20","images/stimuli/10.png","images/stimuli/79.png","-17","2","images/stimuli/14.png","20","1","5","In the video you just watched, which one of the three objects at the bottom of the screen appeared immediately after this object?","29","1","within-no-walls"
"null","","null","html-keyboard-response","139","417369","0.0-5.0-2.22","blank","","","","","","","","","","","","","","",""
"2591","<p>In the video you just watched, in which room did this object appear?</p><p><img src= 'images/stimuli/20.png' style='width: 33%'></p><div class='row'><div class='twoColumn'><p style='float: center; font-size: 20pt; text-align: center;'><img src= 'images/stimuli/nw_room.png' style='width:50%'></p></div><div class='twoColumn'><p style='float: center; font-size: 20pt; text-align: center;'><img src= 'images/stimuli/ww_room.png' style='width:50%'></p></div></div><div class='row'><div class='twoColumn'><p style='float: center; font-size: 20pt; text-align: center;'>1</p></div><div class='twoColumn'><p style='float: center; font-size: 20pt; text-align: center;'>2</p></div>","50","html-keyboard-response","140","419962","0.0-5.0-3.22","roomType","8086","1","","","","","","","","","5","","29","",""
"null","","null","html-keyboard-response","141","420468","0.0-5.0-4.22","blank","","","","","","","","","","","","","","",""
"495","<p>In the video you just watched, on which table did the object appear?</p><p><img src= 'images/stimuli/20.png' style='width: 33%'></p><img src= 'images/stimuli/nw_table.png' style='width:33%'>","50","html-keyboard-response","142","420967","0.0-5.0-5.22","tableNum","8086","2","","","","","","","","","5","","","",""
"null","<div style=""font-size:60px;"">+</div>","null","html-keyboard-response","143","421469","0.0-5.0-0.23","fixation","","","","","","","","","","","","","","",""
"3395","<p>In the video you just watched, which one of the three objects at the bottom of the screen appeared immediately after this object?</p><p><img src= 'images/stimuli/86.png' style='width: 33%'></p><div class='row'><div class='threeColumn'><p style='float: left; font-size: 20pt; text-align: center;'><img src= 'images/stimuli/65.png' style='width:100%'>1</p></div><div class='threeColumn'><p style='float: left; font-size: 20pt; text-align: center;'><img src= 'images/stimuli/4.png' style='width:100%'>2</p></div><div class='threeColumn'><p style='float: left; font-size: 20pt; text-align: center;'><img src= 'images/stimuli/55.png' style='width:100%'>3</p></div></div>","50","html-keyboard-response","144","424876","0.0-5.0-1.23","temporalOrder","8086","1","86","images/stimuli/65.png","images/stimuli/4.png","-28","2","images/stimuli/55.png","43","3","5","In the video you just watched, which one of the three objects at the bottom of the screen appeared immediately after this object?","15","0","across"
"null","","null","html-keyboard-response","145","425378","0.0-5.0-2.23","blank","","","","","","","","","","","","","","",""
"2519","<p>In the video you just watched, in which room did this object appear?</p><p><img src= 'images/stimuli/86.png' style='width: 33%'></p><div class='row'><div class='twoColumn'><p style='float: center; font-size: 20pt; text-align: center;'><img src= 'images/stimuli/nw_room.png' style='width:50%'></p></div><div class='twoColumn'><p style='float: center; font-size: 20pt; text-align: center;'><img src= 'images/stimuli/ww_room.png' style='width:50%'></p></div></div><div class='row'><div class='twoColumn'><p style='float: center; font-size: 20pt; text-align: center;'>1</p></div><div class='twoColumn'><p style='float: center; font-size: 20pt; text-align: center;'>2</p></div>","49","html-keyboard-response","146","427901","0.0-5.0-3.23","roomType","8086","1","","","","","","","","","5","","15","",""
"null","","null","html-keyboard-response","147","428409","0.0-5.0-4.23","blank","","","","","","","","","","","","","","",""
"3162","<p>In the video you just watched, on which table did the object appear?</p><p><img src= 'images/stimuli/86.png' style='width: 33%'></p><img src= 'images/stimuli/nw_table.png' style='width:33%'>","50","html-keyboard-response","148","431573","0.0-5.0-5.23","tableNum","8086","3","","","","","","","","","5","","","",""
"null","<div style=""font-size:60px;"">+</div>","null","html-keyboard-response","149","432079","0.0-5.0-0.24","fixation","","","","","","","","","","","","","","",""
"4431","<p>In the video you just watched, which one of the three objects at the bottom of the screen appeared immediately after this object?</p><p><img src= 'images/stimuli/3.png' style='width: 33%'></p><div class='row'><div class='threeColumn'><p style='float: left; font-size: 20pt; text-align: center;'><img src= 'images/stimuli/34.png' style='width:100%'>1</p></div><div class='threeColumn'><p style='float: left; font-size: 20pt; text-align: center;'><img src= 'images/stimuli/27.png' style='width:100%'>2</p></div><div class='threeColumn'><p style='float: left; font-size: 20pt; text-align: center;'><img src= 'images/stimuli/54.png' style='width:100%'>3</p></div></div>","51","html-keyboard-response","150","436514","0.0-5.0-1.24","temporalOrder","8086","1","3","images/stimuli/34.png","images/stimuli/27.png","-53","2","images/stimuli/54.png","8","3","5","In the video you just watched, which one of the three objects at the bottom of the screen appeared immediately after this object?","34","0","across"
"null","","null","html-keyboard-response","151","437019","0.0-5.0-2.24","blank","","","","","","","","","","","","","","",""
"4975","<p>In the video you just watched, in which room did this object appear?</p><p><img src= 'images/stimuli/3.png' style='width: 33%'></p><div class='row'><div class='twoColumn'><p style='float: center; font-size: 20pt; text-align: center;'><img src= 'images/stimuli/nw_room.png' style='width:50%'></p></div><div class='twoColumn'><p style='float: center; font-size: 20pt; text-align: center;'><img src= 'images/stimuli/ww_room.png' style='width:50%'></p></div></div><div class='row'><div class='twoColumn'><p style='float: center; font-size: 20pt; text-align: center;'>1</p></div><div class='twoColumn'><p style='float: center; font-size: 20pt; text-align: center;'>2</p></div>","49","html-keyboard-response","152","441998","0.0-5.0-3.24","roomType","8086","2","","","","","","","","","5","","34","",""
"null","","null","html-keyboard-response","153","442509","0.0-5.0-4.24","blank","","","","","","","","","","","","","","",""
"376","<p>In the video you just watched, on which table did the object appear?</p><p><img src= 'images/stimuli/3.png' style='width: 33%'></p><img src= 'images/stimuli/nw_table.png' style='width:33%'>","49","html-keyboard-response","154","442895","0.0-5.0-5.24","tableNum","8086","3","","","","","","","","","5","","","",""
"null","<div style=""font-size:60px;"">+</div>","null","html-keyboard-response","155","443398","0.0-5.0-0.25","fixation","","","","","","","","","","","","","","",""
"3936","<p>In the video you just watched, which one of the three objects at the bottom of the screen appeared immediately after this object?</p><p><img src= 'images/stimuli/26.png' style='width: 33%'></p><div class='row'><div class='threeColumn'><p style='float: left; font-size: 20pt; text-align: center;'><img src= 'images/stimuli/87.png' style='width:100%'>1</p></div><div class='threeColumn'><p style='float: left; font-size: 20pt; text-align: center;'><img src= 'images/stimuli/21.png' style='width:100%'>2</p></div><div class='threeColumn'><p style='float: left; font-size: 20pt; text-align: center;'><img src= 'images/stimuli/83.png' style='width:100%'>3</p></div></div>","49","html-keyboard-response","156","447343","0.0-5.0-1.25","temporalOrder","8086","1","26","images/stimuli/87.png","images/stimuli/83.png","-19","3","images/stimuli/21.png","31","2","5","In the video you just watched, which one of the three objects at the bottom of the screen appeared immediately after this object?","22","1","within-walls"
"null","","null","html-keyboard-response","157","447848","0.0-5.0-2.25","blank","","","","","","","","","","","","","","",""
"984","<p>In the video you just watched, in which room did this object appear?</p><p><img src= 'images/stimuli/26.png' style='width: 33%'></p><div class='row'><div class='twoColumn'><p style='float: center; font-size: 20pt; text-align: center;'><img src= 'images/stimuli/nw_room.png' style='width:50%'></p></div><div class='twoColumn'><p style='float: center; font-size: 20pt; text-align: center;'><img src= 'images/stimuli/ww_room.png' style='width:50%'></p></div></div><div class='row'><div class='twoColumn'><p style='float: center; font-size: 20pt; text-align: center;'>1</p></div><div class='twoColumn'><p style='float: center; font-size: 20pt; text-align: center;'>2</p></div>","50","html-keyboard-response","158","448835","0.0-5.0-3.25","roomType","8086","2","","","","","","","","","5","","22","",""
"null","","null","html-keyboard-response","159","449338","0.0-5.0-4.25","blank","","","","","","","","","","","","","","",""
"305","<p>In the video you just watched, on which table did the object appear?</p><p><img src= 'images/stimuli/26.png' style='width: 33%'></p><img src= 'images/stimuli/nw_table.png' style='width:33%'>","50","html-keyboard-response","160","449647","0.0-5.0-5.25","tableNum","8086","2","","","","","","","","","5","","","",""
"null","<div style=""font-size:60px;"">+</div>","null","html-keyboard-response","161","450149","0.0-5.0-0.26","fixation","","","","","","","","","","","","","","",""
"5586","<p>In the video you just watched, which one of the three objects at the bottom of the screen appeared immediately after this object?</p><p><img src= 'images/stimuli/29.png' style='width: 33%'></p><div class='row'><div class='threeColumn'><p style='float: left; font-size: 20pt; text-align: center;'><img src= 'images/stimuli/76.png' style='width:100%'>1</p></div><div class='threeColumn'><p style='float: left; font-size: 20pt; text-align: center;'><img src= 'images/stimuli/54.png' style='width:100%'>2</p></div><div class='threeColumn'><p style='float: left; font-size: 20pt; text-align: center;'><img src= 'images/stimuli/80.png' style='width:100%'>3</p></div></div>","50","html-keyboard-response","162","455740","0.0-5.0-1.26","temporalOrder","8086","3","29","images/stimuli/80.png","images/stimuli/76.png","-3","1","images/stimuli/54.png","35","2","5","In the video you just watched, which one of the three objects at the bottom of the screen appeared immediately after this object?","21","1","within-no-walls"
"null","","null","html-keyboard-response","163","456248","0.0-5.0-2.26","blank","","","","","","","","","","","","","","",""
"2209","<p>In the video you just watched, in which room did this object appear?</p><p><img src= 'images/stimuli/29.png' style='width: 33%'></p><div class='row'><div class='twoColumn'><p style='float: center; font-size: 20pt; text-align: center;'><img src= 'images/stimuli/nw_room.png' style='width:50%'></p></div><div class='twoColumn'><p style='float: center; font-size: 20pt; text-align: center;'><img src= 'images/stimuli/ww_room.png' style='width:50%'></p></div></div><div class='row'><div class='twoColumn'><p style='float: center; font-size: 20pt; text-align: center;'>1</p></div><div class='twoColumn'><p style='float: center; font-size: 20pt; text-align: center;'>2</p></div>","49","html-keyboard-response","164","458462","0.0-5.0-3.26","roomType","8086","1","","","","","","","","","5","","21","",""
"null","","null","html-keyboard-response","165","458968","0.0-5.0-4.26","blank","","","","","","","","","","","","","","",""
"1987","<p>In the video you just watched, on which table did the object appear?</p><p><img src= 'images/stimuli/29.png' style='width: 33%'></p><img src= 'images/stimuli/nw_table.png' style='width:33%'>","49","html-keyboard-response","166","460958","0.0-5.0-5.26","tableNum","8086","2","","","","","","","","","5","","","",""
"null","<div style=""font-size:60px;"">+</div>","null","html-keyboard-response","167","461468","0.0-5.0-0.27","fixation","","","","","","","","","","","","","","",""
"6142","<p>In the video you just watched, which one of the three objects at the bottom of the screen appeared immediately after this object?</p><p><img src= 'images/stimuli/22.png' style='width: 33%'></p><div class='row'><div class='threeColumn'><p style='float: left; font-size: 20pt; text-align: center;'><img src= 'images/stimuli/58.png' style='width:100%'>1</p></div><div class='threeColumn'><p style='float: left; font-size: 20pt; text-align: center;'><img src= 'images/stimuli/84.png' style='width:100%'>2</p></div><div class='threeColumn'><p style='float: left; font-size: 20pt; text-align: center;'><img src= 'images/stimuli/10.png' style='width:100%'>3</p></div></div>","49","html-keyboard-response","168","467619","0.0-5.0-1.27","temporalOrder","8086","2","22","images/stimuli/84.png","images/stimuli/58.png","-9","1","images/stimuli/10.png","45","3","5","In the video you just watched, which one of the three objects at the bottom of the screen appeared immediately after this object?","7","1","within-no-walls"
"null","","null","html-keyboard-response","169","468128","0.0-5.0-2.27","blank","","","","","","","","","","","","","","",""
"1660","<p>In the video you just watched, in which room did this object appear?</p><p><img src= 'images/stimuli/22.png' style='width: 33%'></p><div class='row'><div class='twoColumn'><p style='float: center; font-size: 20pt; text-align: center;'><img src= 'images/stimuli/nw_room.png' style='width:50%'></p></div><div class='twoColumn'><p style='float: center; font-size: 20pt; text-align: center;'><img src= 'images/stimuli/ww_room.png' style='width:50%'></p></div></div><div class='row'><div class='twoColumn'><p style='float: center; font-size: 20pt; text-align: center;'>1</p></div><div class='twoColumn'><p style='float: center; font-size: 20pt; text-align: center;'>2</p></div>","50","html-keyboard-response","170","469791","0.0-5.0-3.27","roomType","8086","1","","","","","","","","","5","","7","",""
"null","","null","html-keyboard-response","171","470299","0.0-5.0-4.27","blank","","","","","","","","","","","","","","",""
"419","<p>In the video you just watched, on which table did the object appear?</p><p><img src= 'images/stimuli/22.png' style='width: 33%'></p><img src= 'images/stimuli/nw_table.png' style='width:33%'>","50","html-keyboard-response","172","470721","0.0-5.0-5.27","tableNum","8086","2","","","","","","","","","5","","","",""
"null","<div style=""font-size:60px;"">+</div>","null","html-keyboard-response","173","471228","0.0-5.0-0.28","fixation","","","","","","","","","","","","","","",""
"3045","<p>In the video you just watched, which one of the three objects at the bottom of the screen appeared immediately after this object?</p><p><img src= 'images/stimuli/53.png' style='width: 33%'></p><div class='row'><div class='threeColumn'><p style='float: left; font-size: 20pt; text-align: center;'><img src= 'images/stimuli/32.png' style='width:100%'>1</p></div><div class='threeColumn'><p style='float: left; font-size: 20pt; text-align: center;'><img src= 'images/stimuli/52.png' style='width:100%'>2</p></div><div class='threeColumn'><p style='float: left; font-size: 20pt; text-align: center;'><img src= 'images/stimuli/7.png' style='width:100%'>3</p></div></div>","51","html-keyboard-response","174","474285","0.0-5.0-1.28","temporalOrder","8086","2","53","images/stimuli/52.png","images/stimuli/32.png","-4","1","images/stimuli/7.png","56","3","5","In the video you just watched, which one of the three objects at the bottom of the screen appeared immediately after this object?","13","0","across"
"null","","null","html-keyboard-response","175","474789","0.0-5.0-2.28","blank","","","","","","","","","","","","","","",""
"2087","<p>In the video you just watched, in which room did this object appear?</p><p><img src= 'images/stimuli/53.png' style='width: 33%'></p><div class='row'><div class='twoColumn'><p style='float: center; font-size: 20pt; text-align: center;'><img src= 'images/stimuli/nw_room.png' style='width:50%'></p></div><div class='twoColumn'><p style='float: center; font-size: 20pt; text-align: center;'><img src= 'images/stimuli/ww_room.png' style='width:50%'></p></div></div><div class='row'><div class='twoColumn'><p style='float: center; font-size: 20pt; text-align: center;'>1</p></div><div class='twoColumn'><p style='float: center; font-size: 20pt; text-align: center;'>2</p></div>","49","html-keyboard-response","176","476880","0.0-5.0-3.28","roomType","8086","1","","","","","","","","","5","","13","",""
"null","","null","html-keyboard-response","177","477388","0.0-5.0-4.28","blank","","","","","","","","","","","","","","",""
"2253","<p>In the video you just watched, on which table did the object appear?</p><p><img src= 'images/stimuli/53.png' style='width: 33%'></p><img src= 'images/stimuli/nw_table.png' style='width:33%'>","49","html-keyboard-response","178","479644","0.0-5.0-5.28","tableNum","8086","3","","","","","","","","","5","","","",""
"null","<div style=""font-size:60px;"">+</div>","null","html-keyboard-response","179","480148","0.0-5.0-0.29","fixation","","","","","","","","","","","","","","",""
"2809","<p>In the video you just watched, which one of the three objects at the bottom of the screen appeared immediately after this object?</p><p><img src= 'images/stimuli/1.png' style='width: 33%'></p><div class='row'><div class='threeColumn'><p style='float: left; font-size: 20pt; text-align: center;'><img src= 'images/stimuli/59.png' style='width:100%'>1</p></div><div class='threeColumn'><p style='float: left; font-size: 20pt; text-align: center;'><img src= 'images/stimuli/50.png' style='width:100%'>2</p></div><div class='threeColumn'><p style='float: left; font-size: 20pt; text-align: center;'><img src= 'images/stimuli/67.png' style='width:100%'>3</p></div></div>","50","html-keyboard-response","180","482968","0.0-5.0-1.29","temporalOrder","8086","1","1","images/stimuli/59.png","images/stimuli/50.png","-3","2","images/stimuli/67.png","14","3","5","In the video you just watched, which one of the three objects at the bottom of the screen appeared immediately after this object?","27","1","within-no-walls"
"null","","null","html-keyboard-response","181","483479","0.0-5.0-2.29","blank","","","","","","","","","","","","","","",""
"1320","<p>In the video you just watched, in which room did this object appear?</p><p><img src= 'images/stimuli/1.png' style='width: 33%'></p><div class='row'><div class='twoColumn'><p style='float: center; font-size: 20pt; text-align: center;'><img src= 'images/stimuli/nw_room.png' style='width:50%'></p></div><div class='twoColumn'><p style='float: center; font-size: 20pt; text-align: center;'><img src= 'images/stimuli/ww_room.png' style='width:50%'></p></div></div><div class='row'><div class='twoColumn'><p style='float: center; font-size: 20pt; text-align: center;'>1</p></div><div class='twoColumn'><p style='float: center; font-size: 20pt; text-align: center;'>2</p></div>","50","html-keyboard-response","182","484802","0.0-5.0-3.29","roomType","8086","1","","","","","","","","","5","","27","",""
"null","","null","html-keyboard-response","183","485308","0.0-5.0-4.29","blank","","","","","","","","","","","","","","",""
"2715","<p>In the video you just watched, on which table did the object appear?</p><p><img src= 'images/stimuli/1.png' style='width: 33%'></p><img src= 'images/stimuli/nw_table.png' style='width:33%'>","50","html-keyboard-response","184","488027","0.0-5.0-5.29","tableNum","8086","2","","","","","","","","","5","","","",""
"null","<div style=""font-size:60px;"">+</div>","null","html-keyboard-response","185","488528","0.0-5.0-0.30","fixation","","","","","","","","","","","","","","",""
"2537","<p>In the video you just watched, which one of the three objects at the bottom of the screen appeared immediately after this object?</p><p><img src= 'images/stimuli/33.png' style='width: 33%'></p><div class='row'><div class='threeColumn'><p style='float: left; font-size: 20pt; text-align: center;'><img src= 'images/stimuli/45.png' style='width:100%'>1</p></div><div class='threeColumn'><p style='float: left; font-size: 20pt; text-align: center;'><img src= 'images/stimuli/24.png' style='width:100%'>2</p></div><div class='threeColumn'><p style='float: left; font-size: 20pt; text-align: center;'><img src= 'images/stimuli/5.png' style='width:100%'>3</p></div></div>","50","html-keyboard-response","186","491076","0.0-5.0-1.30","temporalOrder","8086","2","33","images/stimuli/24.png","images/stimuli/5.png","-13","3","images/stimuli/45.png","8","1","5","In the video you just watched, which one of the three objects at the bottom of the screen appeared immediately after this object?","24","1","within-walls"
"null","","null","html-keyboard-response","187","491578","0.0-5.0-2.30","blank","","","","","","","","","","","","","","",""
"799","<p>In the video you just watched, in which room did this object appear?</p><p><img src= 'images/stimuli/33.png' style='width: 33%'></p><div class='row'><div class='twoColumn'><p style='float: center; font-size: 20pt; text-align: center;'><img src= 'images/stimuli/nw_room.png' style='width:50%'></p></div><div class='twoColumn'><p style='float: center; font-size: 20pt; text-align: center;'><img src= 'images/stimuli/ww_room.png' style='width:50%'></p></div></div><div class='row'><div class='twoColumn'><p style='float: center; font-size: 20pt; text-align: center;'>1</p></div><div class='twoColumn'><p style='float: center; font-size: 20pt; text-align: center;'>2</p></div>","49","html-keyboard-response","188","492380","0.0-5.0-3.30","roomType","8086","2","","","","","","","","","5","","24","",""
"null","","null","html-keyboard-response","189","492888","0.0-5.0-4.30","blank","","","","","","","","","","","","","","",""
"2615","<p>In the video you just watched, on which table did the object appear?</p><p><img src= 'images/stimuli/33.png' style='width: 33%'></p><img src= 'images/stimuli/nw_table.png' style='width:33%'>","49","html-keyboard-response","190","495504","0.0-5.0-5.30","tableNum","8086","2","","","","","","","","","5","","","",""
"null","<div style=""font-size:60px;"">+</div>","null","html-keyboard-response","191","496009","0.0-5.0-0.31","fixation","","","","","","","","","","","","","","",""
"3588","<p>In the video you just watched, which one of the three objects at the bottom of the screen appeared immediately after this object?</p><p><img src= 'images/stimuli/35.png' style='width: 33%'></p><div class='row'><div class='threeColumn'><p style='float: left; font-size: 20pt; text-align: center;'><img src= 'images/stimuli/47.png' style='width:100%'>1</p></div><div class='threeColumn'><p style='float: left; font-size: 20pt; text-align: center;'><img src= 'images/stimuli/9.png' style='width:100%'>2</p></div><div class='threeColumn'><p style='float: left; font-size: 20pt; text-align: center;'><img src= 'images/stimuli/74.png' style='width:100%'>3</p></div></div>","50","html-keyboard-response","192","499607","0.0-5.0-1.31","temporalOrder","8086","3","35","images/stimuli/74.png","images/stimuli/47.png","-4","1","images/stimuli/9.png","78","2","5","In the video you just watched, which one of the three objects at the bottom of the screen appeared immediately after this object?","3","1","within-no-walls"
"null","","null","html-keyboard-response","193","500110","0.0-5.0-2.31","blank","","","","","","","","","","","","","","",""
"2340","<p>In the video you just watched, in which room did this object appear?</p><p><img src= 'images/stimuli/35.png' style='width: 33%'></p><div class='row'><div class='twoColumn'><p style='float: center; font-size: 20pt; text-align: center;'><img src= 'images/stimuli/nw_room.png' style='width:50%'></p></div><div class='twoColumn'><p style='float: center; font-size: 20pt; text-align: center;'><img src= 'images/stimuli/ww_room.png' style='width:50%'></p></div></div><div class='row'><div class='twoColumn'><p style='float: center; font-size: 20pt; text-align: center;'>1</p></div><div class='twoColumn'><p style='float: center; font-size: 20pt; text-align: center;'>2</p></div>","49","html-keyboard-response","194","502453","0.0-5.0-3.31","roomType","8086","1","","","","","","","","","5","","3","",""
"null","","null","html-keyboard-response","195","502960","0.0-5.0-4.31","blank","","","","","","","","","","","","","","",""
"1139","<p>In the video you just watched, on which table did the object appear?</p><p><img src= 'images/stimuli/35.png' style='width: 33%'></p><img src= 'images/stimuli/nw_table.png' style='width:33%'>","50","html-keyboard-response","196","504101","0.0-5.0-5.31","tableNum","8086","2","","","","","","","","","5","","","",""
"null","<div style=""font-size:60px;"">+</div>","null","html-keyboard-response","197","504610","0.0-5.0-0.32","fixation","","","","","","","","","","","","","","",""
"4447","<p>In the video you just watched, which one of the three objects at the bottom of the screen appeared immediately after this object?</p><p><img src= 'images/stimuli/63.png' style='width: 33%'></p><div class='row'><div class='threeColumn'><p style='float: left; font-size: 20pt; text-align: center;'><img src= 'images/stimuli/68.png' style='width:100%'>1</p></div><div class='threeColumn'><p style='float: left; font-size: 20pt; text-align: center;'><img src= 'images/stimuli/15.png' style='width:100%'>2</p></div><div class='threeColumn'><p style='float: left; font-size: 20pt; text-align: center;'><img src= 'images/stimuli/65.png' style='width:100%'>3</p></div></div>","51","html-keyboard-response","198","509068","0.0-5.0-1.32","temporalOrder","8086","2","63","images/stimuli/15.png","images/stimuli/65.png","-5","3","images/stimuli/68.png","43","1","5","In the video you just watched, which one of the three objects at the bottom of the screen appeared immediately after this object?","18","0","across"
"null","","null","html-keyboard-response","199","509569","0.0-5.0-2.32","blank","","","","","","","","","","","","","","",""
"6484","<p>In the video you just watched, in which room did this object appear?</p><p><img src= 'images/stimuli/63.png' style='width: 33%'></p><div class='row'><div class='twoColumn'><p style='float: center; font-size: 20pt; text-align: center;'><img src= 'images/stimuli/nw_room.png' style='width:50%'></p></div><div class='twoColumn'><p style='float: center; font-size: 20pt; text-align: center;'><img src= 'images/stimuli/ww_room.png' style='width:50%'></p></div></div><div class='row'><div class='twoColumn'><p style='float: center; font-size: 20pt; text-align: center;'>1</p></div><div class='twoColumn'><p style='float: center; font-size: 20pt; text-align: center;'>2</p></div>","49","html-keyboard-response","200","516057","0.0-5.0-3.32","roomType","8086","2","","","","","","","","","5","","18","",""
"null","","null","html-keyboard-response","201","516560","0.0-5.0-4.32","blank","","","","","","","","","","","","","","",""
"457","<p>In the video you just watched, on which table did the object appear?</p><p><img src= 'images/stimuli/63.png' style='width: 33%'></p><img src= 'images/stimuli/nw_table.png' style='width:33%'>","49","html-keyboard-response","202","517021","0.0-5.0-5.32","tableNum","8086","3","","","","","","","","","5","","","",""
"null","<div style=""font-size:60px;"">+</div>","null","html-keyboard-response","203","517530","0.0-5.0-0.33","fixation","","","","","","","","","","","","","","",""
"5185","<p>In the video you just watched, which one of the three objects at the bottom of the screen appeared immediately after this object?</p><p><img src= 'images/stimuli/40.png' style='width: 33%'></p><div class='row'><div class='threeColumn'><p style='float: left; font-size: 20pt; text-align: center;'><img src= 'images/stimuli/42.png' style='width:100%'>1</p></div><div class='threeColumn'><p style='float: left; font-size: 20pt; text-align: center;'><img src= 'images/stimuli/73.png' style='width:100%'>2</p></div><div class='threeColumn'><p style='float: left; font-size: 20pt; text-align: center;'><img src= 'images/stimuli/18.png' style='width:100%'>3</p></div></div>","50","html-keyboard-response","204","522723","0.0-5.0-1.33","temporalOrder","8086","3","40","images/stimuli/18.png","images/stimuli/73.png","-42","2","images/stimuli/42.png","28","1","5","In the video you just watched, which one of the three objects at the bottom of the screen appeared immediately after this object?","30","1","within-walls"
"null","","null","html-keyboard-response","205","523229","0.0-5.0-2.33","blank","","","","","","","","","","","","","","",""
"2170","<p>In the video you just watched, in which room did this object appear?</p><p><img src= 'images/stimuli/40.png' style='width: 33%'></p><div class='row'><div class='twoColumn'><p style='float: center; font-size: 20pt; text-align: center;'><img src= 'images/stimuli/nw_room.png' style='width:50%'></p></div><div class='twoColumn'><p style='float: center; font-size: 20pt; text-align: center;'><img src= 'images/stimuli/ww_room.png' style='width:50%'></p></div></div><div class='row'><div class='twoColumn'><p style='float: center; font-size: 20pt; text-align: center;'>1</p></div><div class='twoColumn'><p style='float: center; font-size: 20pt; text-align: center;'>2</p></div>","49","html-keyboard-response","206","525401","0.0-5.0-3.33","roomType","8086","2","","","","","","","","","5","","30","",""
"null","","null","html-keyboard-response","207","525909","0.0-5.0-4.33","blank","","","","","","","","","","","","","","",""
"842","<p>In the video you just watched, on which table did the object appear?</p><p><img src= 'images/stimuli/40.png' style='width: 33%'></p><img src= 'images/stimuli/nw_table.png' style='width:33%'>","50","html-keyboard-response","208","526754","0.0-5.0-5.33","tableNum","8086","2","","","","","","","","","5","","","",""
"null","<div style=""font-size:60px;"">+</div>","null","html-keyboard-response","209","527259","0.0-5.0-0.34","fixation","","","","","","","","","","","","","","",""
"5084","<p>In the video you just watched, which one of the three objects at the bottom of the screen appeared immediately after this object?</p><p><img src= 'images/stimuli/15.png' style='width: 33%'></p><div class='row'><div class='threeColumn'><p style='float: left; font-size: 20pt; text-align: center;'><img src= 'images/stimuli/84.png' style='width:100%'>1</p></div><div class='threeColumn'><p style='float: left; font-size: 20pt; text-align: center;'><img src= 'images/stimuli/76.png' style='width:100%'>2</p></div><div class='threeColumn'><p style='float: left; font-size: 20pt; text-align: center;'><img src= 'images/stimuli/59.png' style='width:100%'>3</p></div></div>","51","html-keyboard-response","210","532349","0.0-5.0-1.34","temporalOrder","8086","2","15","images/stimuli/76.png","images/stimuli/84.png","-23","1","images/stimuli/59.png","17","3","5","In the video you just watched, which one of the three objects at the bottom of the screen appeared immediately after this object?","19","1","within-no-walls"
"null","","null","html-keyboard-response","211","532860","0.0-5.0-2.34","blank","","","","","","","","","","","","","","",""
"1829","<p>In the video you just watched, in which room did this object appear?</p><p><img src= 'images/stimuli/15.png' style='width: 33%'></p><div class='row'><div class='twoColumn'><p style='float: center; font-size: 20pt; text-align: center;'><img src= 'images/stimuli/nw_room.png' style='width:50%'></p></div><div class='twoColumn'><p style='float: center; font-size: 20pt; text-align: center;'><img src= 'images/stimuli/ww_room.png' style='width:50%'></p></div></div><div class='row'><div class='twoColumn'><p style='float: center; font-size: 20pt; text-align: center;'>1</p></div><div class='twoColumn'><p style='float: center; font-size: 20pt; text-align: center;'>2</p></div>","49","html-keyboard-response","212","534700","0.0-5.0-3.34","roomType","8086","1","","","","","","","","","5","","19","",""
"null","","null","html-keyboard-response","213","535209","0.0-5.0-4.34","blank","","","","","","","","","","","","","","",""
"678","<p>In the video you just watched, on which table did the object appear?</p><p><img src= 'images/stimuli/15.png' style='width: 33%'></p><img src= 'images/stimuli/nw_table.png' style='width:33%'>","49","html-keyboard-response","214","535893","0.0-5.0-5.34","tableNum","8086","2","","","","","","","","","5","","","",""
"null","<div style=""font-size:60px;"">+</div>","null","html-keyboard-response","215","536399","0.0-5.0-0.35","fixation","","","","","","","","","","","","","","",""
"3223","<p>In the video you just watched, which one of the three objects at the bottom of the screen appeared immediately after this object?</p><p><img src= 'images/stimuli/25.png' style='width: 33%'></p><div class='row'><div class='threeColumn'><p style='float: left; font-size: 20pt; text-align: center;'><img src= 'images/stimuli/62.png' style='width:100%'>1</p></div><div class='threeColumn'><p style='float: left; font-size: 20pt; text-align: center;'><img src= 'images/stimuli/75.png' style='width:100%'>2</p></div><div class='threeColumn'><p style='float: left; font-size: 20pt; text-align: center;'><img src= 'images/stimuli/77.png' style='width:100%'>3</p></div></div>","49","html-keyboard-response","216","539633","0.0-5.0-1.35","temporalOrder","8086","1","25","images/stimuli/62.png","images/stimuli/77.png","-51","3","images/stimuli/75.png","12","2","5","In the video you just watched, which one of the three objects at the bottom of the screen appeared immediately after this object?","32","1","within-walls"
"null","","null","html-keyboard-response","217","540139","0.0-5.0-2.35","blank","","","","","","","","","","","","","","",""
"622","<p>In the video you just watched, in which room did this object appear?</p><p><img src= 'images/stimuli/25.png' style='width: 33%'></p><div class='row'><div class='twoColumn'><p style='float: center; font-size: 20pt; text-align: center;'><img src= 'images/stimuli/nw_room.png' style='width:50%'></p></div><div class='twoColumn'><p style='float: center; font-size: 20pt; text-align: center;'><img src= 'images/stimuli/ww_room.png' style='width:50%'></p></div></div><div class='row'><div class='twoColumn'><p style='float: center; font-size: 20pt; text-align: center;'>1</p></div><div class='twoColumn'><p style='float: center; font-size: 20pt; text-align: center;'>2</p></div>","50","html-keyboard-response","218","540764","0.0-5.0-3.35","roomType","8086","2","","","","","","","","","5","","32","",""
"null","","null","html-keyboard-response","219","541269","0.0-5.0-4.35","blank","","","","","","","","","","","","","","",""
"531","<p>In the video you just watched, on which table did the object appear?</p><p><img src= 'images/stimuli/25.png' style='width: 33%'></p><img src= 'images/stimuli/nw_table.png' style='width:33%'>","50","html-keyboard-response","220","541804","0.0-5.0-5.35","tableNum","8086","2","","","","","","","","","5","","","",""
"null","<div style=""font-size:60px;"">+</div>","null","html-keyboard-response","221","542309","0.0-5.0-0.36","fixation","","","","","","","","","","","","","","",""
"4636","<p>In the video you just watched, which one of the three objects at the bottom of the screen appeared immediately after this object?</p><p><img src= 'images/stimuli/60.png' style='width: 33%'></p><div class='row'><div class='threeColumn'><p style='float: left; font-size: 20pt; text-align: center;'><img src= 'images/stimuli/41.png' style='width:100%'>1</p></div><div class='threeColumn'><p style='float: left; font-size: 20pt; text-align: center;'><img src= 'images/stimuli/68.png' style='width:100%'>2</p></div><div class='threeColumn'><p style='float: left; font-size: 20pt; text-align: center;'><img src= 'images/stimuli/83.png' style='width:100%'>3</p></div></div>","51","html-keyboard-response","222","546954","0.0-5.0-1.36","temporalOrder","8086","1","60","images/stimuli/41.png","images/stimuli/83.png","-37","3","images/stimuli/68.png","18","2","5","In the video you just watched, which one of the three objects at the bottom of the screen appeared immediately after this object?","31","1","within-no-walls"
"null","","null","html-keyboard-response","223","547459","0.0-5.0-2.36","blank","","","","","","","","","","","","","","",""
"1490","<p>In the video you just watched, in which room did this object appear?</p><p><img src= 'images/stimuli/60.png' style='width: 33%'></p><div class='row'><div class='twoColumn'><p style='float: center; font-size: 20pt; text-align: center;'><img src= 'images/stimuli/nw_room.png' style='width:50%'></p></div><div class='twoColumn'><p style='float: center; font-size: 20pt; text-align: center;'><img src= 'images/stimuli/ww_room.png' style='width:50%'></p></div></div><div class='row'><div class='twoColumn'><p style='float: center; font-size: 20pt; text-align: center;'>1</p></div><div class='twoColumn'><p style='float: center; font-size: 20pt; text-align: center;'>2</p></div>","49","html-keyboard-response","224","548951","0.0-5.0-3.36","roomType","8086","1","","","","","","","","","5","","31","",""
"null","","null","html-keyboard-response","225","549459","0.0-5.0-4.36","blank","","","","","","","","","","","","","","",""
