"rt","stimulus","key_press","test_part","trial_type","trial_index","time_elapsed","internal_node_id","corr_resp","probe","target","foil1","foil2","condition","question","roomNum","sameRoom","context"
"null","<div style=""font-size:60px;"">+</div>","null","fixation","html-keyboard-response","0","505","0.0-0.0-0.0","","","","","","","","","",""
"7657.540000043809","<p>Which of the objects below came next?</p><p><img src= 'images/stimuli/61.png' style='width: 33%'></p><div class='row'><div class='threeColumn'><p style='float: left; font-size: 20pt; text-align: center;'><img src= 'images/stimuli/46.png' style='width:100%'>1</p></div><div class='threeColumn'><p style='float: left; font-size: 20pt; text-align: center;'><img src= 'images/stimuli/73.png' style='width:100%'>2</p></div><div class='threeColumn'><p style='float: left; font-size: 20pt; text-align: center;'><img src= 'images/stimuli/64.png' style='width:100%'>3</p></div></div>","51","temporalOrder","html-keyboard-response","1","8167","0.0-0.0-1.0","1","61","images/stimuli/46.png","images/stimuli/73.png","images/stimuli/64.png","4","Which of the objects below came next?","10","0","across"
"null","","null","blank","html-keyboard-response","2","8670","0.0-0.0-2.0","","","","","","","","","",""
"13997.609999962151","<p>What was the layout of the room in which the object appeared?</p><p><img src= 'images/stimuli/61.png' style='width: 33%'></p><div class='row'><div class='twoColumn'><p style='float: center; font-size: 20pt; text-align: center;'><img src= 'images/stimuli/nw_room.png' style='width:50%'></p></div><div class='twoColumn'><p style='float: center; font-size: 20pt; text-align: center;'><img src= 'images/stimuli/ww_room.png' style='width:50%'></p></div></div><div class='row'><div class='twoColumn'><p style='float: center; font-size: 20pt; text-align: center;'>1</p></div><div class='twoColumn'><p style='float: center; font-size: 20pt; text-align: center;'>2</p></div>","49","roomType","html-keyboard-response","3","22669","0.0-0.0-3.0","1","","","","","4","","10","",""
"null","","null","blank","html-keyboard-response","4","23172","0.0-0.0-4.0","","","","","","","","","",""
"3102.4349997751415","<p>On which table did the object appear?</p><p><img src= 'images/stimuli/61.png' style='width: 33%'></p><img src= 'images/stimuli/nw_table.png' style='width:33%'>","49","tableNum","html-keyboard-response","5","26277","0.0-0.0-5.0","3","","","","","4","","","",""
"null","<div style=""font-size:60px;"">+</div>","null","fixation","html-keyboard-response","6","26781","0.0-0.0-0.1","","","","","","","","","",""
"8351.360000204295","<p>Which of the objects below came next?</p><p><img src= 'images/stimuli/37.png' style='width: 33%'></p><div class='row'><div class='threeColumn'><p style='float: left; font-size: 20pt; text-align: center;'><img src= 'images/stimuli/17.png' style='width:100%'>1</p></div><div class='threeColumn'><p style='float: left; font-size: 20pt; text-align: center;'><img src= 'images/stimuli/79.png' style='width:100%'>2</p></div><div class='threeColumn'><p style='float: left; font-size: 20pt; text-align: center;'><img src= 'images/stimuli/63.png' style='width:100%'>3</p></div></div>","51","temporalOrder","html-keyboard-response","7","35134","0.0-0.0-1.1","3","37","images/stimuli/63.png","images/stimuli/17.png","images/stimuli/79.png","4","Which of the objects below came next?","18","1","within-no-walls"
"null","","null","blank","html-keyboard-response","8","35635","0.0-0.0-2.1","","","","","","","","","",""
"5015.254999976605","<p>What was the layout of the room in which the object appeared?</p><p><img src= 'images/stimuli/37.png' style='width: 33%'></p><div class='row'><div class='twoColumn'><p style='float: center; font-size: 20pt; text-align: center;'><img src= 'images/stimuli/nw_room.png' style='width:50%'></p></div><div class='twoColumn'><p style='float: center; font-size: 20pt; text-align: center;'><img src= 'images/stimuli/ww_room.png' style='width:50%'></p></div></div><div class='row'><div class='twoColumn'><p style='float: center; font-size: 20pt; text-align: center;'>1</p></div><div class='twoColumn'><p style='float: center; font-size: 20pt; text-align: center;'>2</p></div>","50","roomType","html-keyboard-response","9","40652","0.0-0.0-3.1","1","","","","","4","","18","",""
"null","","null","blank","html-keyboard-response","10","41153","0.0-0.0-4.1","","","","","","","","","",""
"3536.629999987781","<p>On which table did the object appear?</p><p><img src= 'images/stimuli/37.png' style='width: 33%'></p><img src= 'images/stimuli/nw_table.png' style='width:33%'>","50","tableNum","html-keyboard-response","11","44692","0.0-0.0-5.1","2","","","","","4","","","",""
"null","<div style=""font-size:60px;"">+</div>","null","fixation","html-keyboard-response","12","45193","0.0-0.0-0.2","","","","","","","","","",""
"8763.594999909401","<p>Which of the objects below came next?</p><p><img src= 'images/stimuli/77.png' style='width: 33%'></p><div class='row'><div class='threeColumn'><p style='float: left; font-size: 20pt; text-align: center;'><img src= 'images/stimuli/22.png' style='width:100%'>1</p></div><div class='threeColumn'><p style='float: left; font-size: 20pt; text-align: center;'><img src= 'images/stimuli/73.png' style='width:100%'>2</p></div><div class='threeColumn'><p style='float: left; font-size: 20pt; text-align: center;'><img src= 'images/stimuli/70.png' style='width:100%'>3</p></div></div>","51","temporalOrder","html-keyboard-response","13","53959","0.0-0.0-1.2","1","77","images/stimuli/22.png","images/stimuli/70.png","images/stimuli/73.png","4","Which of the objects below came next?","6","0","across"
"null","","null","blank","html-keyboard-response","14","54460","0.0-0.0-2.2","","","","","","","","","",""
"11223.654999863356","<p>What was the layout of the room in which the object appeared?</p><p><img src= 'images/stimuli/77.png' style='width: 33%'></p><div class='row'><div class='twoColumn'><p style='float: center; font-size: 20pt; text-align: center;'><img src= 'images/stimuli/nw_room.png' style='width:50%'></p></div><div class='twoColumn'><p style='float: center; font-size: 20pt; text-align: center;'><img src= 'images/stimuli/ww_room.png' style='width:50%'></p></div></div><div class='row'><div class='twoColumn'><p style='float: center; font-size: 20pt; text-align: center;'>1</p></div><div class='twoColumn'><p style='float: center; font-size: 20pt; text-align: center;'>2</p></div>","49","roomType","html-keyboard-response","15","65685","0.0-0.0-3.2","1","","","","","4","","6","",""
"null","","null","blank","html-keyboard-response","16","66186","0.0-0.0-4.2","","","","","","","","","",""
"9826.224999967963","<p>On which table did the object appear?</p><p><img src= 'images/stimuli/77.png' style='width: 33%'></p><img src= 'images/stimuli/nw_table.png' style='width:33%'>","49","tableNum","html-keyboard-response","17","76013","0.0-0.0-5.2","3","","","","","4","","","",""
"null","<div style=""font-size:60px;"">+</div>","null","fixation","html-keyboard-response","18","76515","0.0-0.0-0.3","","","","","","","","","",""
"17023.684999905527","<p>Which of the objects below came next?</p><p><img src= 'images/stimuli/86.png' style='width: 33%'></p><div class='row'><div class='threeColumn'><p style='float: left; font-size: 20pt; text-align: center;'><img src= 'images/stimuli/52.png' style='width:100%'>1</p></div><div class='threeColumn'><p style='float: left; font-size: 20pt; text-align: center;'><img src= 'images/stimuli/65.png' style='width:100%'>2</p></div><div class='threeColumn'><p style='float: left; font-size: 20pt; text-align: center;'><img src= 'images/stimuli/37.png' style='width:100%'>3</p></div></div>","50","temporalOrder","html-keyboard-response","19","93541","0.0-0.0-1.3","2","86","images/stimuli/65.png","images/stimuli/52.png","images/stimuli/37.png","4","Which of the objects below came next?","15","0","across"
"null","","null","blank","html-keyboard-response","20","94042","0.0-0.0-2.3","","","","","","","","","",""
"8823.429999873042","<p>What was the layout of the room in which the object appeared?</p><p><img src= 'images/stimuli/86.png' style='width: 33%'></p><div class='row'><div class='twoColumn'><p style='float: center; font-size: 20pt; text-align: center;'><img src= 'images/stimuli/nw_room.png' style='width:50%'></p></div><div class='twoColumn'><p style='float: center; font-size: 20pt; text-align: center;'><img src= 'images/stimuli/ww_room.png' style='width:50%'></p></div></div><div class='row'><div class='twoColumn'><p style='float: center; font-size: 20pt; text-align: center;'>1</p></div><div class='twoColumn'><p style='float: center; font-size: 20pt; text-align: center;'>2</p></div>","50","roomType","html-keyboard-response","21","102869","0.0-0.0-3.3","2","","","","","4","","15","",""
"null","","null","blank","html-keyboard-response","22","103370","0.0-0.0-4.3","","","","","","","","","",""
"3848.675000015646","<p>On which table did the object appear?</p><p><img src= 'images/stimuli/86.png' style='width: 33%'></p><img src= 'images/stimuli/nw_table.png' style='width:33%'>","50","tableNum","html-keyboard-response","23","107221","0.0-0.0-5.3","3","","","","","4","","","",""
"null","<div style=""font-size:60px;"">+</div>","null","fixation","html-keyboard-response","24","107722","0.0-0.0-0.4","","","","","","","","","",""
"7904.124999884516","<p>Which of the objects below came next?</p><p><img src= 'images/stimuli/65.png' style='width: 33%'></p><div class='row'><div class='threeColumn'><p style='float: left; font-size: 20pt; text-align: center;'><img src= 'images/stimuli/17.png' style='width:100%'>1</p></div><div class='threeColumn'><p style='float: left; font-size: 20pt; text-align: center;'><img src= 'images/stimuli/30.png' style='width:100%'>2</p></div><div class='threeColumn'><p style='float: left; font-size: 20pt; text-align: center;'><img src= 'images/stimuli/63.png' style='width:100%'>3</p></div></div>","51","temporalOrder","html-keyboard-response","25","115629","0.0-0.0-1.4","1","65","images/stimuli/17.png","images/stimuli/30.png","images/stimuli/63.png","4","Which of the objects below came next?","16","1","within-no-walls"
"null","","null","blank","html-keyboard-response","26","116131","0.0-0.0-2.4","","","","","","","","","",""
"9639.489999972284","<p>What was the layout of the room in which the object appeared?</p><p><img src= 'images/stimuli/65.png' style='width: 33%'></p><div class='row'><div class='twoColumn'><p style='float: center; font-size: 20pt; text-align: center;'><img src= 'images/stimuli/nw_room.png' style='width:50%'></p></div><div class='twoColumn'><p style='float: center; font-size: 20pt; text-align: center;'><img src= 'images/stimuli/ww_room.png' style='width:50%'></p></div></div><div class='row'><div class='twoColumn'><p style='float: center; font-size: 20pt; text-align: center;'>1</p></div><div class='twoColumn'><p style='float: center; font-size: 20pt; text-align: center;'>2</p></div>","49","roomType","html-keyboard-response","27","125774","0.0-0.0-3.4","1","","","","","4","","16","",""
"null","","null","blank","html-keyboard-response","28","126275","0.0-0.0-4.4","","","","","","","","","",""
"1374.83000010252","<p>On which table did the object appear?</p><p><img src= 'images/stimuli/65.png' style='width: 33%'></p><img src= 'images/stimuli/nw_table.png' style='width:33%'>","49","tableNum","html-keyboard-response","29","127652","0.0-0.0-5.4","2","","","","","4","","","",""
"null","<div style=""font-size:60px;"">+</div>","null","fixation","html-keyboard-response","30","128154","0.0-0.0-0.5","","","","","","","","","",""
"11521.625000052154","<p>Which of the objects below came next?</p><p><img src= 'images/stimuli/32.png' style='width: 33%'></p><div class='row'><div class='threeColumn'><p style='float: left; font-size: 20pt; text-align: center;'><img src= 'images/stimuli/52.png' style='width:100%'>1</p></div><div class='threeColumn'><p style='float: left; font-size: 20pt; text-align: center;'><img src= 'images/stimuli/8.png' style='width:100%'>2</p></div><div class='threeColumn'><p style='float: left; font-size: 20pt; text-align: center;'><img src= 'images/stimuli/43.png' style='width:100%'>3</p></div></div>","50","temporalOrder","html-keyboard-response","31","139677","0.0-0.0-1.5","3","32","images/stimuli/43.png","images/stimuli/8.png","images/stimuli/52.png","4","Which of the objects below came next?","11","0","across"
"null","","null","blank","html-keyboard-response","32","140177","0.0-0.0-2.5","","","","","","","","","",""
"4968.09499990195","<p>What was the layout of the room in which the object appeared?</p><p><img src= 'images/stimuli/32.png' style='width: 33%'></p><div class='row'><div class='twoColumn'><p style='float: center; font-size: 20pt; text-align: center;'><img src= 'images/stimuli/nw_room.png' style='width:50%'></p></div><div class='twoColumn'><p style='float: center; font-size: 20pt; text-align: center;'><img src= 'images/stimuli/ww_room.png' style='width:50%'></p></div></div><div class='row'><div class='twoColumn'><p style='float: center; font-size: 20pt; text-align: center;'>1</p></div><div class='twoColumn'><p style='float: center; font-size: 20pt; text-align: center;'>2</p></div>","49","roomType","html-keyboard-response","33","145148","0.0-0.0-3.5","2","","","","","4","","11","",""
"null","","null","blank","html-keyboard-response","34","145649","0.0-0.0-4.5","","","","","","","","","",""
"1907.395000103861","<p>On which table did the object appear?</p><p><img src= 'images/stimuli/32.png' style='width: 33%'></p><img src= 'images/stimuli/nw_table.png' style='width:33%'>","50","tableNum","html-keyboard-response","35","147557","0.0-0.0-5.5","3","","","","","4","","","",""
"null","<div style=""font-size:60px;"">+</div>","null","fixation","html-keyboard-response","36","148060","0.0-0.0-0.6","","","","","","","","","",""
"23984.22500025481","<p>Which of the objects below came next?</p><p><img src= 'images/stimuli/22.png' style='width: 33%'></p><div class='row'><div class='threeColumn'><p style='float: left; font-size: 20pt; text-align: center;'><img src= 'images/stimuli/69.png' style='width:100%'>1</p></div><div class='threeColumn'><p style='float: left; font-size: 20pt; text-align: center;'><img src= 'images/stimuli/0.png' style='width:100%'>2</p></div><div class='threeColumn'><p style='float: left; font-size: 20pt; text-align: center;'><img src= 'images/stimuli/84.png' style='width:100%'>3</p></div></div>","49","temporalOrder","html-keyboard-response","37","172046","0.0-0.0-1.6","3","22","images/stimuli/84.png","images/stimuli/69.png","images/stimuli/0.png","4","Which of the objects below came next?","7","1","within-walls"
"null","","null","blank","html-keyboard-response","38","172547","0.0-0.0-2.6","","","","","","","","","",""
"2191.1499998532236","<p>What was the layout of the room in which the object appeared?</p><p><img src= 'images/stimuli/22.png' style='width: 33%'></p><div class='row'><div class='twoColumn'><p style='float: center; font-size: 20pt; text-align: center;'><img src= 'images/stimuli/nw_room.png' style='width:50%'></p></div><div class='twoColumn'><p style='float: center; font-size: 20pt; text-align: center;'><img src= 'images/stimuli/ww_room.png' style='width:50%'></p></div></div><div class='row'><div class='twoColumn'><p style='float: center; font-size: 20pt; text-align: center;'>1</p></div><div class='twoColumn'><p style='float: center; font-size: 20pt; text-align: center;'>2</p></div>","50","roomType","html-keyboard-response","39","174741","0.0-0.0-3.6","2","","","","","4","","7","",""
"null","","null","blank","html-keyboard-response","40","175243","0.0-0.0-4.6","","","","","","","","","",""
"1695.8849998191","<p>On which table did the object appear?</p><p><img src= 'images/stimuli/22.png' style='width: 33%'></p><img src= 'images/stimuli/nw_table.png' style='width:33%'>","49","tableNum","html-keyboard-response","41","176940","0.0-0.0-5.6","2","","","","","4","","","",""
"null","<div style=""font-size:60px;"">+</div>","null","fixation","html-keyboard-response","42","177441","0.0-0.0-0.7","","","","","","","","","",""
"6755.909999832511","<p>Which of the objects below came next?</p><p><img src= 'images/stimuli/31.png' style='width: 33%'></p><div class='row'><div class='threeColumn'><p style='float: left; font-size: 20pt; text-align: center;'><img src= 'images/stimuli/56.png' style='width:100%'>1</p></div><div class='threeColumn'><p style='float: left; font-size: 20pt; text-align: center;'><img src= 'images/stimuli/1.png' style='width:100%'>2</p></div><div class='threeColumn'><p style='float: left; font-size: 20pt; text-align: center;'><img src= 'images/stimuli/20.png' style='width:100%'>3</p></div></div>","51","temporalOrder","html-keyboard-response","43","184198","0.0-0.0-1.7","2","31","images/stimuli/1.png","images/stimuli/56.png","images/stimuli/20.png","4","Which of the objects below came next?","26","0","across"
"null","","null","blank","html-keyboard-response","44","184700","0.0-0.0-2.7","","","","","","","","","",""
"1200.650000013411","<p>What was the layout of the room in which the object appeared?</p><p><img src= 'images/stimuli/31.png' style='width: 33%'></p><div class='row'><div class='twoColumn'><p style='float: center; font-size: 20pt; text-align: center;'><img src= 'images/stimuli/nw_room.png' style='width:50%'></p></div><div class='twoColumn'><p style='float: center; font-size: 20pt; text-align: center;'><img src= 'images/stimuli/ww_room.png' style='width:50%'></p></div></div><div class='row'><div class='twoColumn'><p style='float: center; font-size: 20pt; text-align: center;'>1</p></div><div class='twoColumn'><p style='float: center; font-size: 20pt; text-align: center;'>2</p></div>","49","roomType","html-keyboard-response","45","185910","0.0-0.0-3.7","1","","","","","4","","26","",""
"null","","null","blank","html-keyboard-response","46","186413","0.0-0.0-4.7","","","","","","","","","",""
"855.0200001336634","<p>On which table did the object appear?</p><p><img src= 'images/stimuli/31.png' style='width: 33%'></p><img src= 'images/stimuli/nw_table.png' style='width:33%'>","50","tableNum","html-keyboard-response","47","187269","0.0-0.0-5.7","3","","","","","4","","","",""
"null","<div style=""font-size:60px;"">+</div>","null","fixation","html-keyboard-response","48","187771","0.0-0.0-0.8","","","","","","","","","",""
"16346.004999708384","<p>Which of the objects below came next?</p><p><img src= 'images/stimuli/41.png' style='width: 33%'></p><div class='row'><div class='threeColumn'><p style='float: left; font-size: 20pt; text-align: center;'><img src= 'images/stimuli/25.png' style='width:100%'>1</p></div><div class='threeColumn'><p style='float: left; font-size: 20pt; text-align: center;'><img src= 'images/stimuli/67.png' style='width:100%'>2</p></div><div class='threeColumn'><p style='float: left; font-size: 20pt; text-align: center;'><img src= 'images/stimuli/40.png' style='width:100%'>3</p></div></div>","49","temporalOrder","html-keyboard-response","49","204118","0.0-0.0-1.8","1","41","images/stimuli/25.png","images/stimuli/40.png","images/stimuli/67.png","4","Which of the objects below came next?","31","0","across"
"null","","null","blank","html-keyboard-response","50","204620","0.0-0.0-2.8","","","","","","","","","",""
"1888.4600000455976","<p>What was the layout of the room in which the object appeared?</p><p><img src= 'images/stimuli/41.png' style='width: 33%'></p><div class='row'><div class='twoColumn'><p style='float: center; font-size: 20pt; text-align: center;'><img src= 'images/stimuli/nw_room.png' style='width:50%'></p></div><div class='twoColumn'><p style='float: center; font-size: 20pt; text-align: center;'><img src= 'images/stimuli/ww_room.png' style='width:50%'></p></div></div><div class='row'><div class='twoColumn'><p style='float: center; font-size: 20pt; text-align: center;'>1</p></div><div class='twoColumn'><p style='float: center; font-size: 20pt; text-align: center;'>2</p></div>","50","roomType","html-keyboard-response","51","206509","0.0-0.0-3.8","2","","","","","4","","31","",""
"null","","null","blank","html-keyboard-response","52","207011","0.0-0.0-4.8","","","","","","","","","",""
"1192.524999845773","<p>On which table did the object appear?</p><p><img src= 'images/stimuli/41.png' style='width: 33%'></p><img src= 'images/stimuli/nw_table.png' style='width:33%'>","50","tableNum","html-keyboard-response","53","208206","0.0-0.0-5.8","3","","","","","4","","","",""
"null","<div style=""font-size:60px;"">+</div>","null","fixation","html-keyboard-response","54","208708","0.0-0.0-0.9","","","","","","","","","",""
"8240.129999816418","<p>Which of the objects below came next?</p><p><img src= 'images/stimuli/59.png' style='width: 33%'></p><div class='row'><div class='threeColumn'><p style='float: left; font-size: 20pt; text-align: center;'><img src= 'images/stimuli/45.png' style='width:100%'>1</p></div><div class='threeColumn'><p style='float: left; font-size: 20pt; text-align: center;'><img src= 'images/stimuli/49.png' style='width:100%'>2</p></div><div class='threeColumn'><p style='float: left; font-size: 20pt; text-align: center;'><img src= 'images/stimuli/40.png' style='width:100%'>3</p></div></div>","49","temporalOrder","html-keyboard-response","55","216950","0.0-0.0-1.9","1","59","images/stimuli/45.png","images/stimuli/49.png","images/stimuli/40.png","4","Which of the objects below came next?","27","0","across"
"null","","null","blank","html-keyboard-response","56","217451","0.0-0.0-2.9","","","","","","","","","",""
"14231.174999848008","<p>What was the layout of the room in which the object appeared?</p><p><img src= 'images/stimuli/59.png' style='width: 33%'></p><div class='row'><div class='twoColumn'><p style='float: center; font-size: 20pt; text-align: center;'><img src= 'images/stimuli/nw_room.png' style='width:50%'></p></div><div class='twoColumn'><p style='float: center; font-size: 20pt; text-align: center;'><img src= 'images/stimuli/ww_room.png' style='width:50%'></p></div></div><div class='row'><div class='twoColumn'><p style='float: center; font-size: 20pt; text-align: center;'>1</p></div><div class='twoColumn'><p style='float: center; font-size: 20pt; text-align: center;'>2</p></div>","50","roomType","html-keyboard-response","57","231686","0.0-0.0-3.9","2","","","","","4","","27","",""
"null","","null","blank","html-keyboard-response","58","232187","0.0-0.0-4.9","","","","","","","","","",""
"4280.93000035733","<p>On which table did the object appear?</p><p><img src= 'images/stimuli/59.png' style='width: 33%'></p><img src= 'images/stimuli/nw_table.png' style='width:33%'>","49","tableNum","html-keyboard-response","59","236470","0.0-0.0-5.9","3","","","","","4","","","",""
"null","<div style=""font-size:60px;"">+</div>","null","fixation","html-keyboard-response","60","236971","0.0-0.0-0.10","","","","","","","","","",""
"12311.23000010848","<p>Which of the objects below came next?</p><p><img src= 'images/stimuli/2.png' style='width: 33%'></p><div class='row'><div class='threeColumn'><p style='float: left; font-size: 20pt; text-align: center;'><img src= 'images/stimuli/9.png' style='width:100%'>1</p></div><div class='threeColumn'><p style='float: left; font-size: 20pt; text-align: center;'><img src= 'images/stimuli/75.png' style='width:100%'>2</p></div><div class='threeColumn'><p style='float: left; font-size: 20pt; text-align: center;'><img src= 'images/stimuli/68.png' style='width:100%'>3</p></div></div>","51","temporalOrder","html-keyboard-response","61","249285","0.0-0.0-1.10","3","2","images/stimuli/68.png","images/stimuli/75.png","images/stimuli/9.png","4","Which of the objects below came next?","39","0","across"
"null","","null","blank","html-keyboard-response","62","249788","0.0-0.0-2.10","","","","","","","","","",""
"2254.7899996861815","<p>What was the layout of the room in which the object appeared?</p><p><img src= 'images/stimuli/2.png' style='width: 33%'></p><div class='row'><div class='twoColumn'><p style='float: center; font-size: 20pt; text-align: center;'><img src= 'images/stimuli/nw_room.png' style='width:50%'></p></div><div class='twoColumn'><p style='float: center; font-size: 20pt; text-align: center;'><img src= 'images/stimuli/ww_room.png' style='width:50%'></p></div></div><div class='row'><div class='twoColumn'><p style='float: center; font-size: 20pt; text-align: center;'>1</p></div><div class='twoColumn'><p style='float: center; font-size: 20pt; text-align: center;'>2</p></div>","49","roomType","html-keyboard-response","63","252046","0.0-0.0-3.10","2","","","","","4","","39","",""
"null","","null","blank","html-keyboard-response","64","252547","0.0-0.0-4.10","","","","","","","","","",""
"865.1799997314811","<p>On which table did the object appear?</p><p><img src= 'images/stimuli/2.png' style='width: 33%'></p><img src= 'images/stimuli/nw_table.png' style='width:33%'>","49","tableNum","html-keyboard-response","65","253414","0.0-0.0-5.10","3","","","","","4","","","",""
"null","<div style=""font-size:60px;"">+</div>","null","fixation","html-keyboard-response","66","253915","0.0-0.0-0.11","","","","","","","","","",""
"10354.809999931604","<p>Which of the objects below came next?</p><p><img src= 'images/stimuli/55.png' style='width: 33%'></p><div class='row'><div class='threeColumn'><p style='float: left; font-size: 20pt; text-align: center;'><img src= 'images/stimuli/21.png' style='width:100%'>1</p></div><div class='threeColumn'><p style='float: left; font-size: 20pt; text-align: center;'><img src= 'images/stimuli/16.png' style='width:100%'>2</p></div><div class='threeColumn'><p style='float: left; font-size: 20pt; text-align: center;'><img src= 'images/stimuli/2.png' style='width:100%'>3</p></div></div>","51","temporalOrder","html-keyboard-response","67","264271","0.0-0.0-1.11","1","55","images/stimuli/21.png","images/stimuli/16.png","images/stimuli/2.png","4","Which of the objects below came next?","37","1","within-walls"
"null","","null","blank","html-keyboard-response","68","264774","0.0-0.0-2.11","","","","","","","","","",""
"1237.094999756664","<p>What was the layout of the room in which the object appeared?</p><p><img src= 'images/stimuli/55.png' style='width: 33%'></p><div class='row'><div class='twoColumn'><p style='float: center; font-size: 20pt; text-align: center;'><img src= 'images/stimuli/nw_room.png' style='width:50%'></p></div><div class='twoColumn'><p style='float: center; font-size: 20pt; text-align: center;'><img src= 'images/stimuli/ww_room.png' style='width:50%'></p></div></div><div class='row'><div class='twoColumn'><p style='float: center; font-size: 20pt; text-align: center;'>1</p></div><div class='twoColumn'><p style='float: center; font-size: 20pt; text-align: center;'>2</p></div>","50","roomType","html-keyboard-response","69","266021","0.0-0.0-3.11","2","","","","","4","","37","",""
"null","","null","blank","html-keyboard-response","70","266523","0.0-0.0-4.11","","","","","","","","","",""
"1889.639999717474","<p>On which table did the object appear?</p><p><img src= 'images/stimuli/55.png' style='width: 33%'></p><img src= 'images/stimuli/nw_table.png' style='width:33%'>","50","tableNum","html-keyboard-response","71","268414","0.0-0.0-5.11","2","","","","","4","","","",""
"null","<div style=""font-size:60px;"">+</div>","null","fixation","html-keyboard-response","72","268915","0.0-0.0-0.12","","","","","","","","","",""
"6041.5249997749925","<p>Which of the objects below came next?</p><p><img src= 'images/stimuli/71.png' style='width: 33%'></p><div class='row'><div class='threeColumn'><p style='float: left; font-size: 20pt; text-align: center;'><img src= 'images/stimuli/70.png' style='width:100%'>1</p></div><div class='threeColumn'><p style='float: left; font-size: 20pt; text-align: center;'><img src= 'images/stimuli/22.png' style='width:100%'>2</p></div><div class='threeColumn'><p style='float: left; font-size: 20pt; text-align: center;'><img src= 'images/stimuli/35.png' style='width:100%'>3</p></div></div>","51","temporalOrder","html-keyboard-response","73","274958","0.0-0.0-1.12","1","71","images/stimuli/70.png","images/stimuli/35.png","images/stimuli/22.png","4","Which of the objects below came next?","4","0","across"
"null","","null","blank","html-keyboard-response","74","275459","0.0-0.0-2.12","","","","","","","","","",""
"1777.890000026673","<p>What was the layout of the room in which the object appeared?</p><p><img src= 'images/stimuli/71.png' style='width: 33%'></p><div class='row'><div class='twoColumn'><p style='float: center; font-size: 20pt; text-align: center;'><img src= 'images/stimuli/nw_room.png' style='width:50%'></p></div><div class='twoColumn'><p style='float: center; font-size: 20pt; text-align: center;'><img src= 'images/stimuli/ww_room.png' style='width:50%'></p></div></div><div class='row'><div class='twoColumn'><p style='float: center; font-size: 20pt; text-align: center;'>1</p></div><div class='twoColumn'><p style='float: center; font-size: 20pt; text-align: center;'>2</p></div>","50","roomType","html-keyboard-response","75","277238","0.0-0.0-3.12","1","","","","","4","","4","",""
"null","","null","blank","html-keyboard-response","76","277738","0.0-0.0-4.12","","","","","","","","","",""
"2210.074999835342","<p>On which table did the object appear?</p><p><img src= 'images/stimuli/71.png' style='width: 33%'></p><img src= 'images/stimuli/nw_table.png' style='width:33%'>","50","tableNum","html-keyboard-response","77","279950","0.0-0.0-5.12","3","","","","","4","","","",""
"null","<div style=""font-size:60px;"">+</div>","null","fixation","html-keyboard-response","78","280451","0.0-0.0-0.13","","","","","","","","","",""
"4401.829999871552","<p>Which of the objects below came next?</p><p><img src= 'images/stimuli/7.png' style='width: 33%'></p><div class='row'><div class='threeColumn'><p style='float: left; font-size: 20pt; text-align: center;'><img src= 'images/stimuli/68.png' style='width:100%'>1</p></div><div class='threeColumn'><p style='float: left; font-size: 20pt; text-align: center;'><img src= 'images/stimuli/9.png' style='width:100%'>2</p></div><div class='threeColumn'><p style='float: left; font-size: 20pt; text-align: center;'><img src= 'images/stimuli/42.png' style='width:100%'>3</p></div></div>","51","temporalOrder","html-keyboard-response","79","284854","0.0-0.0-1.13","2","7","images/stimuli/9.png","images/stimuli/68.png","images/stimuli/42.png","4","Which of the objects below came next?","41","0","across"
"null","","null","blank","html-keyboard-response","80","285357","0.0-0.0-2.13","","","","","","","","","",""
"3590.904999990016","<p>What was the layout of the room in which the object appeared?</p><p><img src= 'images/stimuli/7.png' style='width: 33%'></p><div class='row'><div class='twoColumn'><p style='float: center; font-size: 20pt; text-align: center;'><img src= 'images/stimuli/nw_room.png' style='width:50%'></p></div><div class='twoColumn'><p style='float: center; font-size: 20pt; text-align: center;'><img src= 'images/stimuli/ww_room.png' style='width:50%'></p></div></div><div class='row'><div class='twoColumn'><p style='float: center; font-size: 20pt; text-align: center;'>1</p></div><div class='twoColumn'><p style='float: center; font-size: 20pt; text-align: center;'>2</p></div>","50","roomType","html-keyboard-response","81","288950","0.0-0.0-3.13","2","","","","","4","","41","",""
"null","","null","blank","html-keyboard-response","82","289452","0.0-0.0-4.13","","","","","","","","","",""
"912.159999832511","<p>On which table did the object appear?</p><p><img src= 'images/stimuli/7.png' style='width: 33%'></p><img src= 'images/stimuli/nw_table.png' style='width:33%'>","49","tableNum","html-keyboard-response","83","290365","0.0-0.0-5.13","3","","","","","4","","","",""
"null","<div style=""font-size:60px;"">+</div>","null","fixation","html-keyboard-response","84","290866","0.0-0.0-0.14","","","","","","","","","",""
"4809.720000252128","<p>Which of the objects below came next?</p><p><img src= 'images/stimuli/24.png' style='width: 33%'></p><div class='row'><div class='threeColumn'><p style='float: left; font-size: 20pt; text-align: center;'><img src= 'images/stimuli/1.png' style='width:100%'>1</p></div><div class='threeColumn'><p style='float: left; font-size: 20pt; text-align: center;'><img src= 'images/stimuli/56.png' style='width:100%'>2</p></div><div class='threeColumn'><p style='float: left; font-size: 20pt; text-align: center;'><img src= 'images/stimuli/85.png' style='width:100%'>3</p></div></div>","51","temporalOrder","html-keyboard-response","85","295677","0.0-0.0-1.14","2","24","images/stimuli/56.png","images/stimuli/85.png","images/stimuli/1.png","4","Which of the objects below came next?","24","0","across"
"null","","null","blank","html-keyboard-response","86","296179","0.0-0.0-2.14","","","","","","","","","",""
"2585.4099998250604","<p>What was the layout of the room in which the object appeared?</p><p><img src= 'images/stimuli/24.png' style='width: 33%'></p><div class='row'><div class='twoColumn'><p style='float: center; font-size: 20pt; text-align: center;'><img src= 'images/stimuli/nw_room.png' style='width:50%'></p></div><div class='twoColumn'><p style='float: center; font-size: 20pt; text-align: center;'><img src= 'images/stimuli/ww_room.png' style='width:50%'></p></div></div><div class='row'><div class='twoColumn'><p style='float: center; font-size: 20pt; text-align: center;'>1</p></div><div class='twoColumn'><p style='float: center; font-size: 20pt; text-align: center;'>2</p></div>","50","roomType","html-keyboard-response","87","298767","0.0-0.0-3.14","1","","","","","4","","24","",""
"null","","null","blank","html-keyboard-response","88","299268","0.0-0.0-4.14","","","","","","","","","",""
"2089.505000039935","<p>On which table did the object appear?</p><p><img src= 'images/stimuli/24.png' style='width: 33%'></p><img src= 'images/stimuli/nw_table.png' style='width:33%'>","50","tableNum","html-keyboard-response","89","301359","0.0-0.0-5.14","3","","","","","4","","","",""
"null","<div style=""font-size:60px;"">+</div>","null","fixation","html-keyboard-response","90","301861","0.0-0.0-0.15","","","","","","","","","",""
"1183.5650000721216","<p>Which of the objects below came next?</p><p><img src= 'images/stimuli/15.png' style='width: 33%'></p><div class='row'><div class='threeColumn'><p style='float: left; font-size: 20pt; text-align: center;'><img src= 'images/stimuli/5.png' style='width:100%'>1</p></div><div class='threeColumn'><p style='float: left; font-size: 20pt; text-align: center;'><img src= 'images/stimuli/80.png' style='width:100%'>2</p></div><div class='threeColumn'><p style='float: left; font-size: 20pt; text-align: center;'><img src= 'images/stimuli/76.png' style='width:100%'>3</p></div></div>","49","temporalOrder","html-keyboard-response","91","303046","0.0-0.0-1.15","3","15","images/stimuli/76.png","images/stimuli/5.png","images/stimuli/80.png","4","Which of the objects below came next?","19","1","within-walls"
"null","","null","blank","html-keyboard-response","92","303548","0.0-0.0-2.15","","","","","","","","","",""
"743.5499997809529","<p>What was the layout of the room in which the object appeared?</p><p><img src= 'images/stimuli/15.png' style='width: 33%'></p><div class='row'><div class='twoColumn'><p style='float: center; font-size: 20pt; text-align: center;'><img src= 'images/stimuli/nw_room.png' style='width:50%'></p></div><div class='twoColumn'><p style='float: center; font-size: 20pt; text-align: center;'><img src= 'images/stimuli/ww_room.png' style='width:50%'></p></div></div><div class='row'><div class='twoColumn'><p style='float: center; font-size: 20pt; text-align: center;'>1</p></div><div class='twoColumn'><p style='float: center; font-size: 20pt; text-align: center;'>2</p></div>","50","roomType","html-keyboard-response","93","304294","0.0-0.0-3.15","2","","","","","4","","19","",""
"null","","null","blank","html-keyboard-response","94","304797","0.0-0.0-4.15","","","","","","","","","",""
"1110.759999603033","<p>On which table did the object appear?</p><p><img src= 'images/stimuli/15.png' style='width: 33%'></p><img src= 'images/stimuli/nw_table.png' style='width:33%'>","50","tableNum","html-keyboard-response","95","305909","0.0-0.0-5.15","2","","","","","4","","","",""
"null","<div style=""font-size:60px;"">+</div>","null","fixation","html-keyboard-response","96","306410","0.0-0.0-0.16","","","","","","","","","",""
"1579.1299999691546","<p>Which of the objects below came next?</p><p><img src= 'images/stimuli/83.png' style='width: 33%'></p><div class='row'><div class='threeColumn'><p style='float: left; font-size: 20pt; text-align: center;'><img src= 'images/stimuli/64.png' style='width:100%'>1</p></div><div class='threeColumn'><p style='float: left; font-size: 20pt; text-align: center;'><img src= 'images/stimuli/46.png' style='width:100%'>2</p></div><div class='threeColumn'><p style='float: left; font-size: 20pt; text-align: center;'><img src= 'images/stimuli/72.png' style='width:100%'>3</p></div></div>","49","temporalOrder","html-keyboard-response","97","307990","0.0-0.0-1.16","1","83","images/stimuli/64.png","images/stimuli/46.png","images/stimuli/72.png","4","Which of the objects below came next?","12","0","across"
"null","","null","blank","html-keyboard-response","98","308492","0.0-0.0-2.16","","","","","","","","","",""
"336.7049996741116","<p>What was the layout of the room in which the object appeared?</p><p><img src= 'images/stimuli/83.png' style='width: 33%'></p><div class='row'><div class='twoColumn'><p style='float: center; font-size: 20pt; text-align: center;'><img src= 'images/stimuli/nw_room.png' style='width:50%'></p></div><div class='twoColumn'><p style='float: center; font-size: 20pt; text-align: center;'><img src= 'images/stimuli/ww_room.png' style='width:50%'></p></div></div><div class='row'><div class='twoColumn'><p style='float: center; font-size: 20pt; text-align: center;'>1</p></div><div class='twoColumn'><p style='float: center; font-size: 20pt; text-align: center;'>2</p></div>","50","roomType","html-keyboard-response","99","308830","0.0-0.0-3.16","1","","","","","4","","12","",""
"null","","null","blank","html-keyboard-response","100","309333","0.0-0.0-4.16","","","","","","","","","",""
"1867.1200000680983","<p>On which table did the object appear?</p><p><img src= 'images/stimuli/83.png' style='width: 33%'></p><img src= 'images/stimuli/nw_table.png' style='width:33%'>","50","tableNum","html-keyboard-response","101","311201","0.0-0.0-5.16","3","","","","","4","","","",""
"null","<div style=""font-size:60px;"">+</div>","null","fixation","html-keyboard-response","102","311702","0.0-0.0-0.17","","","","","","","","","",""
"4471.659999806434","<p>Which of the objects below came next?</p><p><img src= 'images/stimuli/51.png' style='width: 33%'></p><div class='row'><div class='threeColumn'><p style='float: left; font-size: 20pt; text-align: center;'><img src= 'images/stimuli/79.png' style='width:100%'>1</p></div><div class='threeColumn'><p style='float: left; font-size: 20pt; text-align: center;'><img src= 'images/stimuli/87.png' style='width:100%'>2</p></div><div class='threeColumn'><p style='float: left; font-size: 20pt; text-align: center;'><img src= 'images/stimuli/63.png' style='width:100%'>3</p></div></div>","49","temporalOrder","html-keyboard-response","103","316175","0.0-0.0-1.17","1","51","images/stimuli/79.png","images/stimuli/63.png","images/stimuli/87.png","4","Which of the objects below came next?","20","1","within-no-walls"
"null","","null","blank","html-keyboard-response","104","316677","0.0-0.0-2.17","","","","","","","","","",""
"4745.49000011757","<p>What was the layout of the room in which the object appeared?</p><p><img src= 'images/stimuli/51.png' style='width: 33%'></p><div class='row'><div class='twoColumn'><p style='float: center; font-size: 20pt; text-align: center;'><img src= 'images/stimuli/nw_room.png' style='width:50%'></p></div><div class='twoColumn'><p style='float: center; font-size: 20pt; text-align: center;'><img src= 'images/stimuli/ww_room.png' style='width:50%'></p></div></div><div class='row'><div class='twoColumn'><p style='float: center; font-size: 20pt; text-align: center;'>1</p></div><div class='twoColumn'><p style='float: center; font-size: 20pt; text-align: center;'>2</p></div>","49","roomType","html-keyboard-response","105","321424","0.0-0.0-3.17","1","","","","","4","","20","",""
"null","","null","blank","html-keyboard-response","106","321926","0.0-0.0-4.17","","","","","","","","","",""
"709.7599999979138","<p>On which table did the object appear?</p><p><img src= 'images/stimuli/51.png' style='width: 33%'></p><img src= 'images/stimuli/nw_table.png' style='width:33%'>","50","tableNum","html-keyboard-response","107","322638","0.0-0.0-5.17","2","","","","","4","","","",""
"null","<div style=""font-size:60px;"">+</div>","null","fixation","html-keyboard-response","108","323139","0.0-0.0-0.18","","","","","","","","","",""
"2786.4950001239777","<p>Which of the objects below came next?</p><p><img src= 'images/stimuli/40.png' style='width: 33%'></p><div class='row'><div class='threeColumn'><p style='float: left; font-size: 20pt; text-align: center;'><img src= 'images/stimuli/48.png' style='width:100%'>1</p></div><div class='threeColumn'><p style='float: left; font-size: 20pt; text-align: center;'><img src= 'images/stimuli/62.png' style='width:100%'>2</p></div><div class='threeColumn'><p style='float: left; font-size: 20pt; text-align: center;'><img src= 'images/stimuli/18.png' style='width:100%'>3</p></div></div>","49","temporalOrder","html-keyboard-response","109","325927","0.0-0.0-1.18","3","40","images/stimuli/18.png","images/stimuli/48.png","images/stimuli/62.png","4","Which of the objects below came next?","30","1","within-no-walls"
"null","","null","blank","html-keyboard-response","110","326429","0.0-0.0-2.18","","","","","","","","","",""
"470.1999998651445","<p>What was the layout of the room in which the object appeared?</p><p><img src= 'images/stimuli/40.png' style='width: 33%'></p><div class='row'><div class='twoColumn'><p style='float: center; font-size: 20pt; text-align: center;'><img src= 'images/stimuli/nw_room.png' style='width:50%'></p></div><div class='twoColumn'><p style='float: center; font-size: 20pt; text-align: center;'><img src= 'images/stimuli/ww_room.png' style='width:50%'></p></div></div><div class='row'><div class='twoColumn'><p style='float: center; font-size: 20pt; text-align: center;'>1</p></div><div class='twoColumn'><p style='float: center; font-size: 20pt; text-align: center;'>2</p></div>","50","roomType","html-keyboard-response","111","326902","0.0-0.0-3.18","1","","","","","4","","30","",""
"null","","null","blank","html-keyboard-response","112","327404","0.0-0.0-4.18","","","","","","","","","",""
"953.2550000585616","<p>On which table did the object appear?</p><p><img src= 'images/stimuli/40.png' style='width: 33%'></p><img src= 'images/stimuli/nw_table.png' style='width:33%'>","50","tableNum","html-keyboard-response","113","328359","0.0-0.0-5.18","2","","","","","4","","","",""
"null","<div style=""font-size:60px;"">+</div>","null","fixation","html-keyboard-response","114","328862","0.0-0.0-0.19","","","","","","","","","",""
"439.8500001989305","<p>Which of the objects below came next?</p><p><img src= 'images/stimuli/57.png' style='width: 33%'></p><div class='row'><div class='threeColumn'><p style='float: left; font-size: 20pt; text-align: center;'><img src= 'images/stimuli/14.png' style='width:100%'>1</p></div><div class='threeColumn'><p style='float: left; font-size: 20pt; text-align: center;'><img src= 'images/stimuli/34.png' style='width:100%'>2</p></div><div class='threeColumn'><p style='float: left; font-size: 20pt; text-align: center;'><img src= 'images/stimuli/55.png' style='width:100%'>3</p></div></div>","49","temporalOrder","html-keyboard-response","115","329303","0.0-0.0-1.19","3","57","images/stimuli/55.png","images/stimuli/34.png","images/stimuli/14.png","4","Which of the objects below came next?","36","0","across"
"null","","null","blank","html-keyboard-response","116","329804","0.0-0.0-2.19","","","","","","","","","",""
"2506.719999946654","<p>What was the layout of the room in which the object appeared?</p><p><img src= 'images/stimuli/57.png' style='width: 33%'></p><div class='row'><div class='twoColumn'><p style='float: center; font-size: 20pt; text-align: center;'><img src= 'images/stimuli/nw_room.png' style='width:50%'></p></div><div class='twoColumn'><p style='float: center; font-size: 20pt; text-align: center;'><img src= 'images/stimuli/ww_room.png' style='width:50%'></p></div></div><div class='row'><div class='twoColumn'><p style='float: center; font-size: 20pt; text-align: center;'>1</p></div><div class='twoColumn'><p style='float: center; font-size: 20pt; text-align: center;'>2</p></div>","50","roomType","html-keyboard-response","117","332313","0.0-0.0-3.19","1","","","","","4","","36","",""
"null","","null","blank","html-keyboard-response","118","332815","0.0-0.0-4.19","","","","","","","","","",""
"844.5700001902878","<p>On which table did the object appear?</p><p><img src= 'images/stimuli/57.png' style='width: 33%'></p><img src= 'images/stimuli/nw_table.png' style='width:33%'>","49","tableNum","html-keyboard-response","119","333662","0.0-0.0-5.19","3","","","","","4","","","",""
"null","<div style=""font-size:60px;"">+</div>","null","fixation","html-keyboard-response","120","334163","0.0-0.0-0.20","","","","","","","","","",""
"1177.5800003670156","<p>Which of the objects below came next?</p><p><img src= 'images/stimuli/50.png' style='width: 33%'></p><div class='row'><div class='threeColumn'><p style='float: left; font-size: 20pt; text-align: center;'><img src= 'images/stimuli/33.png' style='width:100%'>1</p></div><div class='threeColumn'><p style='float: left; font-size: 20pt; text-align: center;'><img src= 'images/stimuli/45.png' style='width:100%'>2</p></div><div class='threeColumn'><p style='float: left; font-size: 20pt; text-align: center;'><img src= 'images/stimuli/49.png' style='width:100%'>3</p></div></div>","50","temporalOrder","html-keyboard-response","121","335342","0.0-0.0-1.20","3","50","images/stimuli/49.png","images/stimuli/33.png","images/stimuli/45.png","4","Which of the objects below came next?","25","0","across"
"null","","null","blank","html-keyboard-response","122","335843","0.0-0.0-2.20","","","","","","","","","",""
"570.3750001266599","<p>What was the layout of the room in which the object appeared?</p><p><img src= 'images/stimuli/50.png' style='width: 33%'></p><div class='row'><div class='twoColumn'><p style='float: center; font-size: 20pt; text-align: center;'><img src= 'images/stimuli/nw_room.png' style='width:50%'></p></div><div class='twoColumn'><p style='float: center; font-size: 20pt; text-align: center;'><img src= 'images/stimuli/ww_room.png' style='width:50%'></p></div></div><div class='row'><div class='twoColumn'><p style='float: center; font-size: 20pt; text-align: center;'>1</p></div><div class='twoColumn'><p style='float: center; font-size: 20pt; text-align: center;'>2</p></div>","50","roomType","html-keyboard-response","123","336415","0.0-0.0-3.20","2","","","","","4","","25","",""
"null","","null","blank","html-keyboard-response","124","336917","0.0-0.0-4.20","","","","","","","","","",""
"679.9150002188981","<p>On which table did the object appear?</p><p><img src= 'images/stimuli/50.png' style='width: 33%'></p><img src= 'images/stimuli/nw_table.png' style='width:33%'>","49","tableNum","html-keyboard-response","125","337599","0.0-0.0-5.20","3","","","","","4","","","",""
"null","<div style=""font-size:60px;"">+</div>","null","fixation","html-keyboard-response","126","338101","0.0-0.0-0.21","","","","","","","","","",""
"566.9449996203184","<p>Which of the objects below came next?</p><p><img src= 'images/stimuli/82.png' style='width: 33%'></p><div class='row'><div class='threeColumn'><p style='float: left; font-size: 20pt; text-align: center;'><img src= 'images/stimuli/16.png' style='width:100%'>1</p></div><div class='threeColumn'><p style='float: left; font-size: 20pt; text-align: center;'><img src= 'images/stimuli/66.png' style='width:100%'>2</p></div><div class='threeColumn'><p style='float: left; font-size: 20pt; text-align: center;'><img src= 'images/stimuli/41.png' style='width:100%'>3</p></div></div>","50","temporalOrder","html-keyboard-response","127","338670","0.0-0.0-1.21","2","82","images/stimuli/66.png","images/stimuli/41.png","images/stimuli/16.png","4","Which of the objects below came next?","33","1","within-walls"
"null","","null","blank","html-keyboard-response","128","339172","0.0-0.0-2.21","","","","","","","","","",""
"393.41000001877546","<p>What was the layout of the room in which the object appeared?</p><p><img src= 'images/stimuli/82.png' style='width: 33%'></p><div class='row'><div class='twoColumn'><p style='float: center; font-size: 20pt; text-align: center;'><img src= 'images/stimuli/nw_room.png' style='width:50%'></p></div><div class='twoColumn'><p style='float: center; font-size: 20pt; text-align: center;'><img src= 'images/stimuli/ww_room.png' style='width:50%'></p></div></div><div class='row'><div class='twoColumn'><p style='float: center; font-size: 20pt; text-align: center;'>1</p></div><div class='twoColumn'><p style='float: center; font-size: 20pt; text-align: center;'>2</p></div>","49","roomType","html-keyboard-response","129","339567","0.0-0.0-3.21","2","","","","","4","","33","",""
"null","","null","blank","html-keyboard-response","130","340069","0.0-0.0-4.21","","","","","","","","","",""
"376.3399999588728","<p>On which table did the object appear?</p><p><img src= 'images/stimuli/82.png' style='width: 33%'></p><img src= 'images/stimuli/nw_table.png' style='width:33%'>","49","tableNum","html-keyboard-response","131","340447","0.0-0.0-5.21","2","","","","","4","","","",""
"null","<div style=""font-size:60px;"">+</div>","null","fixation","html-keyboard-response","132","340949","0.0-0.0-0.22","","","","","","","","","",""
"759.7149997018278","<p>Which of the objects below came next?</p><p><img src= 'images/stimuli/18.png' style='width: 33%'></p><div class='row'><div class='threeColumn'><p style='float: left; font-size: 20pt; text-align: center;'><img src= 'images/stimuli/20.png' style='width:100%'>1</p></div><div class='threeColumn'><p style='float: left; font-size: 20pt; text-align: center;'><img src= 'images/stimuli/60.png' style='width:100%'>2</p></div><div class='threeColumn'><p style='float: left; font-size: 20pt; text-align: center;'><img src= 'images/stimuli/82.png' style='width:100%'>3</p></div></div>","50","temporalOrder","html-keyboard-response","133","341710","0.0-0.0-1.22","2","18","images/stimuli/60.png","images/stimuli/20.png","images/stimuli/82.png","4","Which of the objects below came next?","30","0","across"
"null","","null","blank","html-keyboard-response","134","342212","0.0-0.0-2.22","","","","","","","","","",""
"345.7400002516806","<p>What was the layout of the room in which the object appeared?</p><p><img src= 'images/stimuli/18.png' style='width: 33%'></p><div class='row'><div class='twoColumn'><p style='float: center; font-size: 20pt; text-align: center;'><img src= 'images/stimuli/nw_room.png' style='width:50%'></p></div><div class='twoColumn'><p style='float: center; font-size: 20pt; text-align: center;'><img src= 'images/stimuli/ww_room.png' style='width:50%'></p></div></div><div class='row'><div class='twoColumn'><p style='float: center; font-size: 20pt; text-align: center;'>1</p></div><div class='twoColumn'><p style='float: center; font-size: 20pt; text-align: center;'>2</p></div>","50","roomType","html-keyboard-response","135","342560","0.0-0.0-3.22","1","","","","","4","","30","",""
"null","","null","blank","html-keyboard-response","136","343062","0.0-0.0-4.22","","","","","","","","","",""
"263.6400000192225","<p>On which table did the object appear?</p><p><img src= 'images/stimuli/18.png' style='width: 33%'></p><img src= 'images/stimuli/nw_table.png' style='width:33%'>","49","tableNum","html-keyboard-response","137","343327","0.0-0.0-5.22","3","","","","","4","","","",""
"null","<div style=""font-size:60px;"">+</div>","null","fixation","html-keyboard-response","138","343829","0.0-0.0-0.23","","","","","","","","","",""
"335.8099996112287","<p>Which of the objects below came next?</p><p><img src= 'images/stimuli/9.png' style='width: 33%'></p><div class='row'><div class='threeColumn'><p style='float: left; font-size: 20pt; text-align: center;'><img src= 'images/stimuli/13.png' style='width:100%'>1</p></div><div class='threeColumn'><p style='float: left; font-size: 20pt; text-align: center;'><img src= 'images/stimuli/11.png' style='width:100%'>2</p></div><div class='threeColumn'><p style='float: left; font-size: 20pt; text-align: center;'><img src= 'images/stimuli/78.png' style='width:100%'>3</p></div></div>","49","temporalOrder","html-keyboard-response","139","344167","0.0-0.0-1.23","2","9","images/stimuli/11.png","images/stimuli/13.png","images/stimuli/78.png","4","Which of the objects below came next?","42","1","within-no-walls"
"null","","null","blank","html-keyboard-response","140","344668","0.0-0.0-2.23","","","","","","","","","",""
"1225.7500002160668","<p>What was the layout of the room in which the object appeared?</p><p><img src= 'images/stimuli/9.png' style='width: 33%'></p><div class='row'><div class='twoColumn'><p style='float: center; font-size: 20pt; text-align: center;'><img src= 'images/stimuli/nw_room.png' style='width:50%'></p></div><div class='twoColumn'><p style='float: center; font-size: 20pt; text-align: center;'><img src= 'images/stimuli/ww_room.png' style='width:50%'></p></div></div><div class='row'><div class='twoColumn'><p style='float: center; font-size: 20pt; text-align: center;'>1</p></div><div class='twoColumn'><p style='float: center; font-size: 20pt; text-align: center;'>2</p></div>","50","roomType","html-keyboard-response","141","345895","0.0-0.0-3.23","1","","","","","4","","42","",""
"null","","null","blank","html-keyboard-response","142","346396","0.0-0.0-4.23","","","","","","","","","",""
"1794.0050000324845","<p>On which table did the object appear?</p><p><img src= 'images/stimuli/9.png' style='width: 33%'></p><img src= 'images/stimuli/nw_table.png' style='width:33%'>","49","tableNum","html-keyboard-response","143","348191","0.0-0.0-5.23","2","","","","","4","","","",""
"null","<div style=""font-size:60px;"">+</div>","null","fixation","html-keyboard-response","144","348692","0.0-0.0-0.24","","","","","","","","","",""
"968.734999652952","<p>Which of the objects below came next?</p><p><img src= 'images/stimuli/25.png' style='width: 33%'></p><div class='row'><div class='threeColumn'><p style='float: left; font-size: 20pt; text-align: center;'><img src= 'images/stimuli/3.png' style='width:100%'>1</p></div><div class='threeColumn'><p style='float: left; font-size: 20pt; text-align: center;'><img src= 'images/stimuli/18.png' style='width:100%'>2</p></div><div class='threeColumn'><p style='float: left; font-size: 20pt; text-align: center;'><img src= 'images/stimuli/62.png' style='width:100%'>3</p></div></div>","50","temporalOrder","html-keyboard-response","145","349662","0.0-0.0-1.24","3","25","images/stimuli/62.png","images/stimuli/18.png","images/stimuli/3.png","4","Which of the objects below came next?","32","1","within-no-walls"
"null","","null","blank","html-keyboard-response","146","350163","0.0-0.0-2.24","","","","","","","","","",""
"323.44500022009015","<p>What was the layout of the room in which the object appeared?</p><p><img src= 'images/stimuli/25.png' style='width: 33%'></p><div class='row'><div class='twoColumn'><p style='float: center; font-size: 20pt; text-align: center;'><img src= 'images/stimuli/nw_room.png' style='width:50%'></p></div><div class='twoColumn'><p style='float: center; font-size: 20pt; text-align: center;'><img src= 'images/stimuli/ww_room.png' style='width:50%'></p></div></div><div class='row'><div class='twoColumn'><p style='float: center; font-size: 20pt; text-align: center;'>1</p></div><div class='twoColumn'><p style='float: center; font-size: 20pt; text-align: center;'>2</p></div>","49","roomType","html-keyboard-response","147","350487","0.0-0.0-3.24","1","","","","","4","","32","",""
"null","","null","blank","html-keyboard-response","148","350989","0.0-0.0-4.24","","","","","","","","","",""
"416.04500031098723","<p>On which table did the object appear?</p><p><img src= 'images/stimuli/25.png' style='width: 33%'></p><img src= 'images/stimuli/nw_table.png' style='width:33%'>","49","tableNum","html-keyboard-response","149","351407","0.0-0.0-5.24","2","","","","","4","","","",""
"null","<div style=""font-size:60px;"">+</div>","null","fixation","html-keyboard-response","150","351908","0.0-0.0-0.25","","","","","","","","","",""
"296.0700001567602","<p>Which of the objects below came next?</p><p><img src= 'images/stimuli/73.png' style='width: 33%'></p><div class='row'><div class='threeColumn'><p style='float: left; font-size: 20pt; text-align: center;'><img src= 'images/stimuli/0.png' style='width:100%'>1</p></div><div class='threeColumn'><p style='float: left; font-size: 20pt; text-align: center;'><img src= 'images/stimuli/84.png' style='width:100%'>2</p></div><div class='threeColumn'><p style='float: left; font-size: 20pt; text-align: center;'><img src= 'images/stimuli/32.png' style='width:100%'>3</p></div></div>","49","temporalOrder","html-keyboard-response","151","352207","0.0-0.0-1.25","1","73","images/stimuli/0.png","images/stimuli/84.png","images/stimuli/32.png","4","Which of the objects below came next?","9","1","within-walls"
"null","","null","blank","html-keyboard-response","152","352709","0.0-0.0-2.25","","","","","","","","","",""
"345.44500010088086","<p>What was the layout of the room in which the object appeared?</p><p><img src= 'images/stimuli/73.png' style='width: 33%'></p><div class='row'><div class='twoColumn'><p style='float: center; font-size: 20pt; text-align: center;'><img src= 'images/stimuli/nw_room.png' style='width:50%'></p></div><div class='twoColumn'><p style='float: center; font-size: 20pt; text-align: center;'><img src= 'images/stimuli/ww_room.png' style='width:50%'></p></div></div><div class='row'><div class='twoColumn'><p style='float: center; font-size: 20pt; text-align: center;'>1</p></div><div class='twoColumn'><p style='float: center; font-size: 20pt; text-align: center;'>2</p></div>","49","roomType","html-keyboard-response","153","353056","0.0-0.0-3.25","2","","","","","4","","9","",""
"null","","null","blank","html-keyboard-response","154","353556","0.0-0.0-4.25","","","","","","","","","",""
"17.00500026345253","<p>On which table did the object appear?</p><p><img src= 'images/stimuli/73.png' style='width: 33%'></p><img src= 'images/stimuli/nw_table.png' style='width:33%'>","50","tableNum","html-keyboard-response","155","353575","0.0-0.0-5.25","2","","","","","4","","","",""
"null","<div style=""font-size:60px;"">+</div>","null","fixation","html-keyboard-response","156","354078","0.0-0.0-0.26","","","","","","","","","",""
"1007.5550000183284","<p>Which of the objects below came next?</p><p><img src= 'images/stimuli/10.png' style='width: 33%'></p><div class='row'><div class='threeColumn'><p style='float: left; font-size: 20pt; text-align: center;'><img src= 'images/stimuli/25.png' style='width:100%'>1</p></div><div class='threeColumn'><p style='float: left; font-size: 20pt; text-align: center;'><img src= 'images/stimuli/40.png' style='width:100%'>2</p></div><div class='threeColumn'><p style='float: left; font-size: 20pt; text-align: center;'><img src= 'images/stimuli/45.png' style='width:100%'>3</p></div></div>","50","temporalOrder","html-keyboard-response","157","355087","0.0-0.0-1.26","2","10","images/stimuli/40.png","images/stimuli/45.png","images/stimuli/25.png","4","Which of the objects below came next?","29","0","across"
"null","","null","blank","html-keyboard-response","158","355589","0.0-0.0-2.26","","","","","","","","","",""
"655.6400000117719","<p>What was the layout of the room in which the object appeared?</p><p><img src= 'images/stimuli/10.png' style='width: 33%'></p><div class='row'><div class='twoColumn'><p style='float: center; font-size: 20pt; text-align: center;'><img src= 'images/stimuli/nw_room.png' style='width:50%'></p></div><div class='twoColumn'><p style='float: center; font-size: 20pt; text-align: center;'><img src= 'images/stimuli/ww_room.png' style='width:50%'></p></div></div><div class='row'><div class='twoColumn'><p style='float: center; font-size: 20pt; text-align: center;'>1</p></div><div class='twoColumn'><p style='float: center; font-size: 20pt; text-align: center;'>2</p></div>","49","roomType","html-keyboard-response","159","356247","0.0-0.0-3.26","2","","","","","4","","29","",""
"null","","null","blank","html-keyboard-response","160","356748","0.0-0.0-4.26","","","","","","","","","",""
"1049.2300000041723","<p>On which table did the object appear?</p><p><img src= 'images/stimuli/10.png' style='width: 33%'></p><img src= 'images/stimuli/nw_table.png' style='width:33%'>","49","tableNum","html-keyboard-response","161","357799","0.0-0.0-5.26","3","","","","","4","","","",""
"null","<div style=""font-size:60px;"">+</div>","null","fixation","html-keyboard-response","162","358301","0.0-0.0-0.27","","","","","","","","","",""
"639.4899999722838","<p>Which of the objects below came next?</p><p><img src= 'images/stimuli/53.png' style='width: 33%'></p><div class='row'><div class='threeColumn'><p style='float: left; font-size: 20pt; text-align: center;'><img src= 'images/stimuli/52.png' style='width:100%'>1</p></div><div class='threeColumn'><p style='float: left; font-size: 20pt; text-align: center;'><img src= 'images/stimuli/65.png' style='width:100%'>2</p></div><div class='threeColumn'><p style='float: left; font-size: 20pt; text-align: center;'><img src= 'images/stimuli/43.png' style='width:100%'>3</p></div></div>","49","temporalOrder","html-keyboard-response","163","358943","0.0-0.0-1.27","1","53","images/stimuli/52.png","images/stimuli/43.png","images/stimuli/65.png","4","Which of the objects below came next?","13","0","across"
"null","","null","blank","html-keyboard-response","164","359444","0.0-0.0-2.27","","","","","","","","","",""
"257.574999704957","<p>What was the layout of the room in which the object appeared?</p><p><img src= 'images/stimuli/53.png' style='width: 33%'></p><div class='row'><div class='twoColumn'><p style='float: center; font-size: 20pt; text-align: center;'><img src= 'images/stimuli/nw_room.png' style='width:50%'></p></div><div class='twoColumn'><p style='float: center; font-size: 20pt; text-align: center;'><img src= 'images/stimuli/ww_room.png' style='width:50%'></p></div></div><div class='row'><div class='twoColumn'><p style='float: center; font-size: 20pt; text-align: center;'>1</p></div><div class='twoColumn'><p style='float: center; font-size: 20pt; text-align: center;'>2</p></div>","49","roomType","html-keyboard-response","165","359704","0.0-0.0-3.27","2","","","","","4","","13","",""
"null","","null","blank","html-keyboard-response","166","360205","0.0-0.0-4.27","","","","","","","","","",""
"288.3850000798702","<p>On which table did the object appear?</p><p><img src= 'images/stimuli/53.png' style='width: 33%'></p><img src= 'images/stimuli/nw_table.png' style='width:33%'>","50","tableNum","html-keyboard-response","167","360495","0.0-0.0-5.27","3","","","","","4","","","",""
"null","<div style=""font-size:60px;"">+</div>","null","fixation","html-keyboard-response","168","360997","0.0-0.0-0.28","","","","","","","","","",""
"591.539999935776","<p>Which of the objects below came next?</p><p><img src= 'images/stimuli/49.png' style='width: 33%'></p><div class='row'><div class='threeColumn'><p style='float: left; font-size: 20pt; text-align: center;'><img src= 'images/stimuli/24.png' style='width:100%'>1</p></div><div class='threeColumn'><p style='float: left; font-size: 20pt; text-align: center;'><img src= 'images/stimuli/31.png' style='width:100%'>2</p></div><div class='threeColumn'><p style='float: left; font-size: 20pt; text-align: center;'><img src= 'images/stimuli/48.png' style='width:100%'>3</p></div></div>","50","temporalOrder","html-keyboard-response","169","361591","0.0-0.0-1.28","2","49","images/stimuli/31.png","images/stimuli/24.png","images/stimuli/48.png","4","Which of the objects below came next?","26","1","within-no-walls"
"null","","null","blank","html-keyboard-response","170","362094","0.0-0.0-2.28","","","","","","","","","",""
"415.3350000269711","<p>What was the layout of the room in which the object appeared?</p><p><img src= 'images/stimuli/49.png' style='width: 33%'></p><div class='row'><div class='twoColumn'><p style='float: center; font-size: 20pt; text-align: center;'><img src= 'images/stimuli/nw_room.png' style='width:50%'></p></div><div class='twoColumn'><p style='float: center; font-size: 20pt; text-align: center;'><img src= 'images/stimuli/ww_room.png' style='width:50%'></p></div></div><div class='row'><div class='twoColumn'><p style='float: center; font-size: 20pt; text-align: center;'>1</p></div><div class='twoColumn'><p style='float: center; font-size: 20pt; text-align: center;'>2</p></div>","49","roomType","html-keyboard-response","171","362511","0.0-0.0-3.28","1","","","","","4","","26","",""
"null","","null","blank","html-keyboard-response","172","363013","0.0-0.0-4.28","","","","","","","","","",""
"343.98999996483326","<p>On which table did the object appear?</p><p><img src= 'images/stimuli/49.png' style='width: 33%'></p><img src= 'images/stimuli/nw_table.png' style='width:33%'>","50","tableNum","html-keyboard-response","173","363358","0.0-0.0-5.28","2","","","","","4","","","",""
"null","<div style=""font-size:60px;"">+</div>","null","fixation","html-keyboard-response","174","363859","0.0-0.0-0.29","","","","","","","","","",""
"386.0749998129904","<p>Which of the objects below came next?</p><p><img src= 'images/stimuli/56.png' style='width: 33%'></p><div class='row'><div class='threeColumn'><p style='float: left; font-size: 20pt; text-align: center;'><img src= 'images/stimuli/50.png' style='width:100%'>1</p></div><div class='threeColumn'><p style='float: left; font-size: 20pt; text-align: center;'><img src= 'images/stimuli/28.png' style='width:100%'>2</p></div><div class='threeColumn'><p style='float: left; font-size: 20pt; text-align: center;'><img src= 'images/stimuli/59.png' style='width:100%'>3</p></div></div>","50","temporalOrder","html-keyboard-response","175","364247","0.0-0.0-1.29","1","56","images/stimuli/50.png","images/stimuli/28.png","images/stimuli/59.png","4","Which of the objects below came next?","25","1","within-walls"
"null","","null","blank","html-keyboard-response","176","364749","0.0-0.0-2.29","","","","","","","","","",""
"288.8200003653765","<p>What was the layout of the room in which the object appeared?</p><p><img src= 'images/stimuli/56.png' style='width: 33%'></p><div class='row'><div class='twoColumn'><p style='float: center; font-size: 20pt; text-align: center;'><img src= 'images/stimuli/nw_room.png' style='width:50%'></p></div><div class='twoColumn'><p style='float: center; font-size: 20pt; text-align: center;'><img src= 'images/stimuli/ww_room.png' style='width:50%'></p></div></div><div class='row'><div class='twoColumn'><p style='float: center; font-size: 20pt; text-align: center;'>1</p></div><div class='twoColumn'><p style='float: center; font-size: 20pt; text-align: center;'>2</p></div>","49","roomType","html-keyboard-response","177","365039","0.0-0.0-3.29","2","","","","","4","","25","",""
"null","","null","blank","html-keyboard-response","178","365540","0.0-0.0-4.29","","","","","","","","","",""
"298.2149999588728","<p>On which table did the object appear?</p><p><img src= 'images/stimuli/56.png' style='width: 33%'></p><img src= 'images/stimuli/nw_table.png' style='width:33%'>","49","tableNum","html-keyboard-response","179","365839","0.0-0.0-5.29","2","","","","","4","","","",""
"null","<div style=""font-size:60px;"">+</div>","null","fixation","html-keyboard-response","180","366341","0.0-0.0-0.30","","","","","","","","","",""
"287.6749997958541","<p>Which of the objects below came next?</p><p><img src= 'images/stimuli/62.png' style='width: 33%'></p><div class='row'><div class='threeColumn'><p style='float: left; font-size: 20pt; text-align: center;'><img src= 'images/stimuli/60.png' style='width:100%'>1</p></div><div class='threeColumn'><p style='float: left; font-size: 20pt; text-align: center;'><img src= 'images/stimuli/34.png' style='width:100%'>2</p></div><div class='threeColumn'><p style='float: left; font-size: 20pt; text-align: center;'><img src= 'images/stimuli/82.png' style='width:100%'>3</p></div></div>","50","temporalOrder","html-keyboard-response","181","366631","0.0-0.0-1.30","3","62","images/stimuli/82.png","images/stimuli/60.png","images/stimuli/34.png","4","Which of the objects below came next?","32","0","across"
"null","","null","blank","html-keyboard-response","182","367134","0.0-0.0-2.30","","","","","","","","","",""
"496.480000205338","<p>What was the layout of the room in which the object appeared?</p><p><img src= 'images/stimuli/62.png' style='width: 33%'></p><div class='row'><div class='twoColumn'><p style='float: center; font-size: 20pt; text-align: center;'><img src= 'images/stimuli/nw_room.png' style='width:50%'></p></div><div class='twoColumn'><p style='float: center; font-size: 20pt; text-align: center;'><img src= 'images/stimuli/ww_room.png' style='width:50%'></p></div></div><div class='row'><div class='twoColumn'><p style='float: center; font-size: 20pt; text-align: center;'>1</p></div><div class='twoColumn'><p style='float: center; font-size: 20pt; text-align: center;'>2</p></div>","50","roomType","html-keyboard-response","183","367631","0.0-0.0-3.30","1","","","","","4","","32","",""
"null","","null","blank","html-keyboard-response","184","368132","0.0-0.0-4.30","","","","","","","","","",""
"305.7400002144277","<p>On which table did the object appear?</p><p><img src= 'images/stimuli/62.png' style='width: 33%'></p><img src= 'images/stimuli/nw_table.png' style='width:33%'>","49","tableNum","html-keyboard-response","185","368439","0.0-0.0-5.30","3","","","","","4","","","",""
"null","<div style=""font-size:60px;"">+</div>","null","fixation","html-keyboard-response","186","368940","0.0-0.0-0.31","","","","","","","","","",""
"274.5150001719594","<p>Which of the objects below came next?</p><p><img src= 'images/stimuli/66.png' style='width: 33%'></p><div class='row'><div class='threeColumn'><p style='float: left; font-size: 20pt; text-align: center;'><img src= 'images/stimuli/23.png' style='width:100%'>1</p></div><div class='threeColumn'><p style='float: left; font-size: 20pt; text-align: center;'><img src= 'images/stimuli/67.png' style='width:100%'>2</p></div><div class='threeColumn'><p style='float: left; font-size: 20pt; text-align: center;'><img src= 'images/stimuli/25.png' style='width:100%'>3</p></div></div>","49","temporalOrder","html-keyboard-response","187","369215","0.0-0.0-1.31","2","66","images/stimuli/67.png","images/stimuli/25.png","images/stimuli/23.png","4","Which of the objects below came next?","33","0","across"
"null","","null","blank","html-keyboard-response","188","369717","0.0-0.0-2.31","","","","","","","","","",""
"177.0150000229478","<p>What was the layout of the room in which the object appeared?</p><p><img src= 'images/stimuli/66.png' style='width: 33%'></p><div class='row'><div class='twoColumn'><p style='float: center; font-size: 20pt; text-align: center;'><img src= 'images/stimuli/nw_room.png' style='width:50%'></p></div><div class='twoColumn'><p style='float: center; font-size: 20pt; text-align: center;'><img src= 'images/stimuli/ww_room.png' style='width:50%'></p></div></div><div class='row'><div class='twoColumn'><p style='float: center; font-size: 20pt; text-align: center;'>1</p></div><div class='twoColumn'><p style='float: center; font-size: 20pt; text-align: center;'>2</p></div>","49","roomType","html-keyboard-response","189","369896","0.0-0.0-3.31","2","","","","","4","","33","",""
"null","","null","blank","html-keyboard-response","190","370397","0.0-0.0-4.31","","","","","","","","","",""
"127.53000017255545","<p>On which table did the object appear?</p><p><img src= 'images/stimuli/66.png' style='width: 33%'></p><img src= 'images/stimuli/nw_table.png' style='width:33%'>","50","tableNum","html-keyboard-response","191","370527","0.0-0.0-5.31","3","","","","","4","","","",""
"null","<div style=""font-size:60px;"">+</div>","null","fixation","html-keyboard-response","192","371028","0.0-0.0-0.32","","","","","","","","","",""
"114.25499990582466","<p>Which of the objects below came next?</p><p><img src= 'images/stimuli/70.png' style='width: 33%'></p><div class='row'><div class='threeColumn'><p style='float: left; font-size: 20pt; text-align: center;'><img src= 'images/stimuli/84.png' style='width:100%'>1</p></div><div class='threeColumn'><p style='float: left; font-size: 20pt; text-align: center;'><img src= 'images/stimuli/74.png' style='width:100%'>2</p></div><div class='threeColumn'><p style='float: left; font-size: 20pt; text-align: center;'><img src= 'images/stimuli/69.png' style='width:100%'>3</p></div></div>","50","temporalOrder","html-keyboard-response","193","371144","0.0-0.0-1.32","3","70","images/stimuli/69.png","images/stimuli/74.png","images/stimuli/84.png","4","Which of the objects below came next?","5","1","within-walls"
"null","","null","blank","html-keyboard-response","194","371646","0.0-0.0-2.32","","","","","","","","","",""
"136.78999990224838","<p>What was the layout of the room in which the object appeared?</p><p><img src= 'images/stimuli/70.png' style='width: 33%'></p><div class='row'><div class='twoColumn'><p style='float: center; font-size: 20pt; text-align: center;'><img src= 'images/stimuli/nw_room.png' style='width:50%'></p></div><div class='twoColumn'><p style='float: center; font-size: 20pt; text-align: center;'><img src= 'images/stimuli/ww_room.png' style='width:50%'></p></div></div><div class='row'><div class='twoColumn'><p style='float: center; font-size: 20pt; text-align: center;'>1</p></div><div class='twoColumn'><p style='float: center; font-size: 20pt; text-align: center;'>2</p></div>","49","roomType","html-keyboard-response","195","371784","0.0-0.0-3.32","2","","","","","4","","5","",""
"null","","null","blank","html-keyboard-response","196","372285","0.0-0.0-4.32","","","","","","","","","",""
"367.61000007390976","<p>On which table did the object appear?</p><p><img src= 'images/stimuli/70.png' style='width: 33%'></p><img src= 'images/stimuli/nw_table.png' style='width:33%'>","49","tableNum","html-keyboard-response","197","372654","0.0-0.0-5.32","2","","","","","4","","","",""
"null","<div style=""font-size:60px;"">+</div>","null","fixation","html-keyboard-response","198","373156","0.0-0.0-0.33","","","","","","","","","",""
"33.270000014454126","<p>Which of the objects below came next?</p><p><img src= 'images/stimuli/85.png' style='width: 33%'></p><div class='row'><div class='threeColumn'><p style='float: left; font-size: 20pt; text-align: center;'><img src= 'images/stimuli/50.png' style='width:100%'>1</p></div><div class='threeColumn'><p style='float: left; font-size: 20pt; text-align: center;'><img src= 'images/stimuli/80.png' style='width:100%'>2</p></div><div class='threeColumn'><p style='float: left; font-size: 20pt; text-align: center;'><img src= 'images/stimuli/28.png' style='width:100%'>3</p></div></div>","49","temporalOrder","html-keyboard-response","199","373191","0.0-0.0-1.33","3","85","images/stimuli/28.png","images/stimuli/80.png","images/stimuli/50.png","4","Which of the objects below came next?","23","1","within-walls"
"null","","null","blank","html-keyboard-response","200","373693","0.0-0.0-2.33","","","","","","","","","",""
"25.98499972373247","<p>What was the layout of the room in which the object appeared?</p><p><img src= 'images/stimuli/85.png' style='width: 33%'></p><div class='row'><div class='twoColumn'><p style='float: center; font-size: 20pt; text-align: center;'><img src= 'images/stimuli/nw_room.png' style='width:50%'></p></div><div class='twoColumn'><p style='float: center; font-size: 20pt; text-align: center;'><img src= 'images/stimuli/ww_room.png' style='width:50%'></p></div></div><div class='row'><div class='twoColumn'><p style='float: center; font-size: 20pt; text-align: center;'>1</p></div><div class='twoColumn'><p style='float: center; font-size: 20pt; text-align: center;'>2</p></div>","49","roomType","html-keyboard-response","201","373720","0.0-0.0-3.33","2","","","","","4","","23","",""
"null","","null","blank","html-keyboard-response","202","374223","0.0-0.0-4.33","","","","","","","","","",""
"23.105000145733356","<p>On which table did the object appear?</p><p><img src= 'images/stimuli/85.png' style='width: 33%'></p><img src= 'images/stimuli/nw_table.png' style='width:33%'>","50","tableNum","html-keyboard-response","203","374247","0.0-0.0-5.33","2","","","","","4","","","",""
"null","<div style=""font-size:60px;"">+</div>","null","fixation","html-keyboard-response","204","374748","0.0-0.0-0.34","","","","","","","","","",""
"1096.855000127107","<p>Which of the objects below came next?</p><p><img src= 'images/stimuli/81.png' style='width: 33%'></p><div class='row'><div class='threeColumn'><p style='float: left; font-size: 20pt; text-align: center;'><img src= 'images/stimuli/77.png' style='width:100%'>1</p></div><div class='threeColumn'><p style='float: left; font-size: 20pt; text-align: center;'><img src= 'images/stimuli/71.png' style='width:100%'>2</p></div><div class='threeColumn'><p style='float: left; font-size: 20pt; text-align: center;'><img src= 'images/stimuli/12.png' style='width:100%'>3</p></div></div>","51","temporalOrder","html-keyboard-response","205","375848","0.0-0.0-1.34","1","81","images/stimuli/77.png","images/stimuli/71.png","images/stimuli/12.png","4","Which of the objects below came next?","6","1","within-no-walls"
"null","","null","blank","html-keyboard-response","206","376350","0.0-0.0-2.34","","","","","","","","","",""
"1143.1800001300871","<p>What was the layout of the room in which the object appeared?</p><p><img src= 'images/stimuli/81.png' style='width: 33%'></p><div class='row'><div class='twoColumn'><p style='float: center; font-size: 20pt; text-align: center;'><img src= 'images/stimuli/nw_room.png' style='width:50%'></p></div><div class='twoColumn'><p style='float: center; font-size: 20pt; text-align: center;'><img src= 'images/stimuli/ww_room.png' style='width:50%'></p></div></div><div class='row'><div class='twoColumn'><p style='float: center; font-size: 20pt; text-align: center;'>1</p></div><div class='twoColumn'><p style='float: center; font-size: 20pt; text-align: center;'>2</p></div>","49","roomType","html-keyboard-response","207","377496","0.0-0.0-3.34","1","","","","","4","","6","",""
"null","","null","blank","html-keyboard-response","208","377997","0.0-0.0-4.34","","","","","","","","","",""
"256.63999980315566","<p>On which table did the object appear?</p><p><img src= 'images/stimuli/81.png' style='width: 33%'></p><img src= 'images/stimuli/nw_table.png' style='width:33%'>","50","tableNum","html-keyboard-response","209","378255","0.0-0.0-5.34","2","","","","","4","","","",""
"null","<div style=""font-size:60px;"">+</div>","null","fixation","html-keyboard-response","210","378757","0.0-0.0-0.35","","","","","","","","","",""
"1296.28000035882","<p>Which of the objects below came next?</p><p><img src= 'images/stimuli/75.png' style='width: 33%'></p><div class='row'><div class='threeColumn'><p style='float: left; font-size: 20pt; text-align: center;'><img src= 'images/stimuli/54.png' style='width:100%'>1</p></div><div class='threeColumn'><p style='float: left; font-size: 20pt; text-align: center;'><img src= 'images/stimuli/57.png' style='width:100%'>2</p></div><div class='threeColumn'><p style='float: left; font-size: 20pt; text-align: center;'><img src= 'images/stimuli/13.png' style='width:100%'>3</p></div></div>","51","temporalOrder","html-keyboard-response","211","380055","0.0-0.0-1.35","1","75","images/stimuli/54.png","images/stimuli/57.png","images/stimuli/13.png","4","Which of the objects below came next?","38","1","within-no-walls"
"null","","null","blank","html-keyboard-response","212","380556","0.0-0.0-2.35","","","","","","","","","",""
"1145.0499999336898","<p>What was the layout of the room in which the object appeared?</p><p><img src= 'images/stimuli/75.png' style='width: 33%'></p><div class='row'><div class='twoColumn'><p style='float: center; font-size: 20pt; text-align: center;'><img src= 'images/stimuli/nw_room.png' style='width:50%'></p></div><div class='twoColumn'><p style='float: center; font-size: 20pt; text-align: center;'><img src= 'images/stimuli/ww_room.png' style='width:50%'></p></div></div><div class='row'><div class='twoColumn'><p style='float: center; font-size: 20pt; text-align: center;'>1</p></div><div class='twoColumn'><p style='float: center; font-size: 20pt; text-align: center;'>2</p></div>","50","roomType","html-keyboard-response","213","381703","0.0-0.0-3.35","1","","","","","4","","38","",""
"null","","null","blank","html-keyboard-response","214","382205","0.0-0.0-4.35","","","","","","","","","",""
"297.9699997231364","<p>On which table did the object appear?</p><p><img src= 'images/stimuli/75.png' style='width: 33%'></p><img src= 'images/stimuli/nw_table.png' style='width:33%'>","49","tableNum","html-keyboard-response","215","382505","0.0-0.0-5.35","2","","","","","4","","","",""
"null","<div style=""font-size:60px;"">+</div>","null","fixation","html-keyboard-response","216","383007","0.0-0.0-0.36","","","","","","","","","",""
"1599.3149997666478","<p>Which of the objects below came next?</p><p><img src= 'images/stimuli/84.png' style='width: 33%'></p><div class='row'><div class='threeColumn'><p style='float: left; font-size: 20pt; text-align: center;'><img src= 'images/stimuli/81.png' style='width:100%'>1</p></div><div class='threeColumn'><p style='float: left; font-size: 20pt; text-align: center;'><img src= 'images/stimuli/27.png' style='width:100%'>2</p></div><div class='threeColumn'><p style='float: left; font-size: 20pt; text-align: center;'><img src= 'images/stimuli/8.png' style='width:100%'>3</p></div></div>","50","temporalOrder","html-keyboard-response","217","384608","0.0-0.0-1.36","2","84","images/stimuli/27.png","images/stimuli/81.png","images/stimuli/8.png","4","Which of the objects below came next?","7","0","across"
"null","","null","blank","html-keyboard-response","218","385109","0.0-0.0-2.36","","","","","","","","","",""
"410.389999859035","<p>What was the layout of the room in which the object appeared?</p><p><img src= 'images/stimuli/84.png' style='width: 33%'></p><div class='row'><div class='twoColumn'><p style='float: center; font-size: 20pt; text-align: center;'><img src= 'images/stimuli/nw_room.png' style='width:50%'></p></div><div class='twoColumn'><p style='float: center; font-size: 20pt; text-align: center;'><img src= 'images/stimuli/ww_room.png' style='width:50%'></p></div></div><div class='row'><div class='twoColumn'><p style='float: center; font-size: 20pt; text-align: center;'>1</p></div><div class='twoColumn'><p style='float: center; font-size: 20pt; text-align: center;'>2</p></div>","49","roomType","html-keyboard-response","219","385520","0.0-0.0-3.36","2","","","","","4","","7","",""
"null","","null","blank","html-keyboard-response","220","386023","0.0-0.0-4.36","","","","","","","","","",""
"1399.0199998952448","<p>On which table did the object appear?</p><p><img src= 'images/stimuli/84.png' style='width: 33%'></p><img src= 'images/stimuli/nw_table.png' style='width:33%'>","49","tableNum","html-keyboard-response","221","387424","0.0-0.0-5.36","3","","","","","4","","","",""
"null","<div style=""font-size:60px;"">+</div>","null","fixation","html-keyboard-response","222","387925","0.0-0.0-0.37","","","","","","","","","",""
"1127.7000000700355","<p>Which of the objects below came next?</p><p><img src= 'images/stimuli/16.png' style='width: 33%'></p><div class='row'><div class='threeColumn'><p style='float: left; font-size: 20pt; text-align: center;'><img src= 'images/stimuli/23.png' style='width:100%'>1</p></div><div class='threeColumn'><p style='float: left; font-size: 20pt; text-align: center;'><img src= 'images/stimuli/67.png' style='width:100%'>2</p></div><div class='threeColumn'><p style='float: left; font-size: 20pt; text-align: center;'><img src= 'images/stimuli/75.png' style='width:100%'>3</p></div></div>","51","temporalOrder","html-keyboard-response","223","389055","0.0-0.0-1.37","1","16","images/stimuli/23.png","images/stimuli/67.png","images/stimuli/75.png","4","Which of the objects below came next?","35","0","across"
"null","","null","blank","html-keyboard-response","224","389557","0.0-0.0-2.37","","","","","","","","","",""
"305.9900002554059","<p>What was the layout of the room in which the object appeared?</p><p><img src= 'images/stimuli/16.png' style='width: 33%'></p><div class='row'><div class='twoColumn'><p style='float: center; font-size: 20pt; text-align: center;'><img src= 'images/stimuli/nw_room.png' style='width:50%'></p></div><div class='twoColumn'><p style='float: center; font-size: 20pt; text-align: center;'><img src= 'images/stimuli/ww_room.png' style='width:50%'></p></div></div><div class='row'><div class='twoColumn'><p style='float: center; font-size: 20pt; text-align: center;'>1</p></div><div class='twoColumn'><p style='float: center; font-size: 20pt; text-align: center;'>2</p></div>","50","roomType","html-keyboard-response","225","389864","0.0-0.0-3.37","2","","","","","4","","35","",""
"null","","null","blank","html-keyboard-response","226","390365","0.0-0.0-4.37","","","","","","","","","",""
"784.3050002120435","<p>On which table did the object appear?</p><p><img src= 'images/stimuli/16.png' style='width: 33%'></p><img src= 'images/stimuli/nw_table.png' style='width:33%'>","49","tableNum","html-keyboard-response","227","391151","0.0-0.0-5.37","3","","","","","4","","","",""
"null","<div style=""font-size:60px;"">+</div>","null","fixation","html-keyboard-response","228","391653","0.0-0.0-0.38","","","","","","","","","",""
"609.6850000321865","<p>Which of the objects below came next?</p><p><img src= 'images/stimuli/72.png' style='width: 33%'></p><div class='row'><div class='threeColumn'><p style='float: left; font-size: 20pt; text-align: center;'><img src= 'images/stimuli/86.png' style='width:100%'>1</p></div><div class='threeColumn'><p style='float: left; font-size: 20pt; text-align: center;'><img src= 'images/stimuli/53.png' style='width:100%'>2</p></div><div class='threeColumn'><p style='float: left; font-size: 20pt; text-align: center;'><img src= 'images/stimuli/5.png' style='width:100%'>3</p></div></div>","50","temporalOrder","html-keyboard-response","229","392264","0.0-0.0-1.38","1","72","images/stimuli/86.png","images/stimuli/53.png","images/stimuli/5.png","4","Which of the objects below came next?","15","1","within-walls"
"null","","null","blank","html-keyboard-response","230","392765","0.0-0.0-2.38","","","","","","","","","",""
"1064.3100002780557","<p>What was the layout of the room in which the object appeared?</p><p><img src= 'images/stimuli/72.png' style='width: 33%'></p><div class='row'><div class='twoColumn'><p style='float: center; font-size: 20pt; text-align: center;'><img src= 'images/stimuli/nw_room.png' style='width:50%'></p></div><div class='twoColumn'><p style='float: center; font-size: 20pt; text-align: center;'><img src= 'images/stimuli/ww_room.png' style='width:50%'></p></div></div><div class='row'><div class='twoColumn'><p style='float: center; font-size: 20pt; text-align: center;'>1</p></div><div class='twoColumn'><p style='float: center; font-size: 20pt; text-align: center;'>2</p></div>","50","roomType","html-keyboard-response","231","393832","0.0-0.0-3.38","2","","","","","4","","15","",""
"null","","null","blank","html-keyboard-response","232","394333","0.0-0.0-4.38","","","","","","","","","",""
"417.84000024199486","<p>On which table did the object appear?</p><p><img src= 'images/stimuli/72.png' style='width: 33%'></p><img src= 'images/stimuli/nw_table.png' style='width:33%'>","50","tableNum","html-keyboard-response","233","394752","0.0-0.0-5.38","2","","","","","4","","","",""
"null","<div style=""font-size:60px;"">+</div>","null","fixation","html-keyboard-response","234","395253","0.0-0.0-0.39","","","","","","","","","",""
"471.16499999538064","<p>Which of the objects below came next?</p><p><img src= 'images/stimuli/52.png' style='width: 33%'></p><div class='row'><div class='threeColumn'><p style='float: left; font-size: 20pt; text-align: center;'><img src= 'images/stimuli/83.png' style='width:100%'>1</p></div><div class='threeColumn'><p style='float: left; font-size: 20pt; text-align: center;'><img src= 'images/stimuli/17.png' style='width:100%'>2</p></div><div class='threeColumn'><p style='float: left; font-size: 20pt; text-align: center;'><img src= 'images/stimuli/30.png' style='width:100%'>3</p></div></div>","49","temporalOrder","html-keyboard-response","235","395727","0.0-0.0-1.39","3","52","images/stimuli/30.png","images/stimuli/83.png","images/stimuli/17.png","4","Which of the objects below came next?","14","1","within-no-walls"
"null","","null","blank","html-keyboard-response","236","396227","0.0-0.0-2.39","","","","","","","","","",""
"372.1750001423061","<p>What was the layout of the room in which the object appeared?</p><p><img src= 'images/stimuli/52.png' style='width: 33%'></p><div class='row'><div class='twoColumn'><p style='float: center; font-size: 20pt; text-align: center;'><img src= 'images/stimuli/nw_room.png' style='width:50%'></p></div><div class='twoColumn'><p style='float: center; font-size: 20pt; text-align: center;'><img src= 'images/stimuli/ww_room.png' style='width:50%'></p></div></div><div class='row'><div class='twoColumn'><p style='float: center; font-size: 20pt; text-align: center;'>1</p></div><div class='twoColumn'><p style='float: center; font-size: 20pt; text-align: center;'>2</p></div>","49","roomType","html-keyboard-response","237","396601","0.0-0.0-3.39","1","","","","","4","","14","",""
"null","","null","blank","html-keyboard-response","238","397103","0.0-0.0-4.39","","","","","","","","","",""
"807.289999909699","<p>On which table did the object appear?</p><p><img src= 'images/stimuli/52.png' style='width: 33%'></p><img src= 'images/stimuli/nw_table.png' style='width:33%'>","50","tableNum","html-keyboard-response","239","397912","0.0-0.0-5.39","2","","","","","4","","","",""
"null","<div style=""font-size:60px;"">+</div>","null","fixation","html-keyboard-response","240","398413","0.0-0.0-0.40","","","","","","","","","",""
"504.6149999834597","<p>Which of the objects below came next?</p><p><img src= 'images/stimuli/69.png' style='width: 33%'></p><div class='row'><div class='threeColumn'><p style='float: left; font-size: 20pt; text-align: center;'><img src= 'images/stimuli/27.png' style='width:100%'>1</p></div><div class='threeColumn'><p style='float: left; font-size: 20pt; text-align: center;'><img src= 'images/stimuli/81.png' style='width:100%'>2</p></div><div class='threeColumn'><p style='float: left; font-size: 20pt; text-align: center;'><img src= 'images/stimuli/44.png' style='width:100%'>3</p></div></div>","49","temporalOrder","html-keyboard-response","241","398920","0.0-0.0-1.40","2","69","images/stimuli/81.png","images/stimuli/44.png","images/stimuli/27.png","4","Which of the objects below came next?","5","0","across"
"null","","null","blank","html-keyboard-response","242","399421","0.0-0.0-2.40","","","","","","","","","",""
"1064.3899999558926","<p>What was the layout of the room in which the object appeared?</p><p><img src= 'images/stimuli/69.png' style='width: 33%'></p><div class='row'><div class='twoColumn'><p style='float: center; font-size: 20pt; text-align: center;'><img src= 'images/stimuli/nw_room.png' style='width:50%'></p></div><div class='twoColumn'><p style='float: center; font-size: 20pt; text-align: center;'><img src= 'images/stimuli/ww_room.png' style='width:50%'></p></div></div><div class='row'><div class='twoColumn'><p style='float: center; font-size: 20pt; text-align: center;'>1</p></div><div class='twoColumn'><p style='float: center; font-size: 20pt; text-align: center;'>2</p></div>","50","roomType","html-keyboard-response","243","400488","0.0-0.0-3.40","2","","","","","4","","5","",""
"null","","null","blank","html-keyboard-response","244","400990","0.0-0.0-4.40","","","","","","","","","",""
"536.290000192821","<p>On which table did the object appear?</p><p><img src= 'images/stimuli/69.png' style='width: 33%'></p><img src= 'images/stimuli/nw_table.png' style='width:33%'>","50","tableNum","html-keyboard-response","245","401528","0.0-0.0-5.40","3","","","","","4","","","",""
"null","<div style=""font-size:60px;"">+</div>","null","fixation","html-keyboard-response","246","402031","0.0-0.0-0.41","","","","","","","","","",""
"927.000000141561","<p>Which of the objects below came next?</p><p><img src= 'images/stimuli/68.png' style='width: 33%'></p><div class='row'><div class='threeColumn'><p style='float: left; font-size: 20pt; text-align: center;'><img src= 'images/stimuli/13.png' style='width:100%'>1</p></div><div class='threeColumn'><p style='float: left; font-size: 20pt; text-align: center;'><img src= 'images/stimuli/54.png' style='width:100%'>2</p></div><div class='threeColumn'><p style='float: left; font-size: 20pt; text-align: center;'><img src= 'images/stimuli/11.png' style='width:100%'>3</p></div></div>","51","temporalOrder","html-keyboard-response","247","402960","0.0-0.0-1.41","1","68","images/stimuli/13.png","images/stimuli/54.png","images/stimuli/11.png","4","Which of the objects below came next?","40","1","within-no-walls"
"null","","null","blank","html-keyboard-response","248","403463","0.0-0.0-2.41","","","","","","","","","",""
"605.6499998085201","<p>What was the layout of the room in which the object appeared?</p><p><img src= 'images/stimuli/68.png' style='width: 33%'></p><div class='row'><div class='twoColumn'><p style='float: center; font-size: 20pt; text-align: center;'><img src= 'images/stimuli/nw_room.png' style='width:50%'></p></div><div class='twoColumn'><p style='float: center; font-size: 20pt; text-align: center;'><img src= 'images/stimuli/ww_room.png' style='width:50%'></p></div></div><div class='row'><div class='twoColumn'><p style='float: center; font-size: 20pt; text-align: center;'>1</p></div><div class='twoColumn'><p style='float: center; font-size: 20pt; text-align: center;'>2</p></div>","49","roomType","html-keyboard-response","249","404071","0.0-0.0-3.41","1","","","","","4","","40","",""
"null","","null","blank","html-keyboard-response","250","404571","0.0-0.0-4.41","","","","","","","","","",""
"403.6449999548495","<p>On which table did the object appear?</p><p><img src= 'images/stimuli/68.png' style='width: 33%'></p><img src= 'images/stimuli/nw_table.png' style='width:33%'>","49","tableNum","html-keyboard-response","251","404976","0.0-0.0-5.41","2","","","","","4","","","",""
"null","<div style=""font-size:60px;"">+</div>","null","fixation","html-keyboard-response","252","405479","0.0-0.0-0.42","","","","","","","","","",""
"333.16999999806285","<p>Which of the objects below came next?</p><p><img src= 'images/stimuli/28.png' style='width: 33%'></p><div class='row'><div class='threeColumn'><p style='float: left; font-size: 20pt; text-align: center;'><img src= 'images/stimuli/33.png' style='width:100%'>1</p></div><div class='threeColumn'><p style='float: left; font-size: 20pt; text-align: center;'><img src= 'images/stimuli/49.png' style='width:100%'>2</p></div><div class='threeColumn'><p style='float: left; font-size: 20pt; text-align: center;'><img src= 'images/stimuli/26.png' style='width:100%'>3</p></div></div>","50","temporalOrder","html-keyboard-response","253","405814","0.0-0.0-1.42","1","28","images/stimuli/33.png","images/stimuli/26.png","images/stimuli/49.png","4","Which of the objects below came next?","23","0","across"
"null","","null","blank","html-keyboard-response","254","406317","0.0-0.0-2.42","","","","","","","","","",""
"951.4250000938773","<p>What was the layout of the room in which the object appeared?</p><p><img src= 'images/stimuli/28.png' style='width: 33%'></p><div class='row'><div class='twoColumn'><p style='float: center; font-size: 20pt; text-align: center;'><img src= 'images/stimuli/nw_room.png' style='width:50%'></p></div><div class='twoColumn'><p style='float: center; font-size: 20pt; text-align: center;'><img src= 'images/stimuli/ww_room.png' style='width:50%'></p></div></div><div class='row'><div class='twoColumn'><p style='float: center; font-size: 20pt; text-align: center;'>1</p></div><div class='twoColumn'><p style='float: center; font-size: 20pt; text-align: center;'>2</p></div>","49","roomType","html-keyboard-response","255","407271","0.0-0.0-3.42","2","","","","","4","","23","",""
"null","","null","blank","html-keyboard-response","256","407771","0.0-0.0-4.42","","","","","","","","","",""
"378.69999976828694","<p>On which table did the object appear?</p><p><img src= 'images/stimuli/28.png' style='width: 33%'></p><img src= 'images/stimuli/nw_table.png' style='width:33%'>","49","tableNum","html-keyboard-response","257","408151","0.0-0.0-5.42","3","","","","","4","","","",""
"null","<div style=""font-size:60px;"">+</div>","null","fixation","html-keyboard-response","258","408654","0.0-0.0-0.43","","","","","","","","","",""
"272.9150000959635","<p>Which of the objects below came next?</p><p><img src= 'images/stimuli/17.png' style='width: 33%'></p><div class='row'><div class='threeColumn'><p style='float: left; font-size: 20pt; text-align: center;'><img src= 'images/stimuli/72.png' style='width:100%'>1</p></div><div class='threeColumn'><p style='float: left; font-size: 20pt; text-align: center;'><img src= 'images/stimuli/36.png' style='width:100%'>2</p></div><div class='threeColumn'><p style='float: left; font-size: 20pt; text-align: center;'><img src= 'images/stimuli/15.png' style='width:100%'>3</p></div></div>","50","temporalOrder","html-keyboard-response","259","408928","0.0-0.0-1.43","2","17","images/stimuli/36.png","images/stimuli/72.png","images/stimuli/15.png","4","Which of the objects below came next?","16","0","across"
"null","","null","blank","html-keyboard-response","260","409428","0.0-0.0-2.43","","","","","","","","","",""
"962.3199999332428","<p>What was the layout of the room in which the object appeared?</p><p><img src= 'images/stimuli/17.png' style='width: 33%'></p><div class='row'><div class='twoColumn'><p style='float: center; font-size: 20pt; text-align: center;'><img src= 'images/stimuli/nw_room.png' style='width:50%'></p></div><div class='twoColumn'><p style='float: center; font-size: 20pt; text-align: center;'><img src= 'images/stimuli/ww_room.png' style='width:50%'></p></div></div><div class='row'><div class='twoColumn'><p style='float: center; font-size: 20pt; text-align: center;'>1</p></div><div class='twoColumn'><p style='float: center; font-size: 20pt; text-align: center;'>2</p></div>","50","roomType","html-keyboard-response","261","410392","0.0-0.0-3.43","1","","","","","4","","16","",""
"null","","null","blank","html-keyboard-response","262","410894","0.0-0.0-4.43","","","","","","","","","",""
